Time,Extension,Load
(sec),(mm),(N)
0.00000,0.00000,-0.00142
0.05000,-0.00107,-0.00060
0.10000,-0.00533,-0.00087
0.15000,-0.01400,-0.00611
0.20000,-0.02467,-0.01050
0.25000,-0.03507,-0.01694
0.30000,-0.04520,-0.02392
0.35000,-0.05480,-0.02722
0.40000,-0.06400,-0.03409
0.45000,-0.07320,-0.03878
0.50000,-0.08187,-0.04234
0.55000,-0.09053,-0.04781
0.60000,-0.09933,-0.05502
0.65000,-0.10760,-0.06013
0.70000,-0.11600,-0.06577
0.75000,-0.12467,-0.06995
0.80000,-0.13293,-0.07613
0.85000,-0.14120,-0.08324
0.90000,-0.14973,-0.08939
0.95000,-0.15827,-0.09509
1.00000,-0.16640,-0.10250
1.05000,-0.17493,-0.11009
1.10000,-0.18347,-0.11699
1.15000,-0.19173,-0.12522
1.20000,-0.20013,-0.13047
1.25000,-0.20853,-0.14102
1.30000,-0.21680,-0.14705
1.35000,-0.22520,-0.15753
1.40000,-0.23333,-0.16313
1.45000,-0.24160,-0.17306
1.50000,-0.25000,-0.18023
1.55000,-0.25827,-0.19095
1.60000,-0.26640,-0.19891
1.65000,-0.27507,-0.20898
1.70000,-0.28320,-0.21826
1.75000,-0.29147,-0.22808
1.80000,-0.30013,-0.23728
1.85000,-0.30853,-0.24779
1.90000,-0.31667,-0.25775
1.95000,-0.32507,-0.26891
2.00000,-0.33347,-0.27949
2.05000,-0.34160,-0.28988
2.10000,-0.34987,-0.30028
2.15000,-0.35840,-0.31269
2.20000,-0.36667,-0.32378
2.25000,-0.37493,-0.33537
2.30000,-0.38320,-0.34758
2.35000,-0.39160,-0.35996
2.40000,-0.39987,-0.37114
2.45000,-0.40813,-0.38436
2.50000,-0.41640,-0.39685
2.55000,-0.42507,-0.40860
2.60000,-0.43333,-0.42291
2.65000,-0.44147,-0.43475
2.70000,-0.45000,-0.44837
2.75000,-0.45840,-0.46119
2.80000,-0.46653,-0.47592
2.85000,-0.47507,-0.48903
2.90000,-0.48360,-0.50370
2.95000,-0.49160,-0.51669
3.00000,-0.49973,-0.52951
3.05000,-0.50827,-0.54502
3.10000,-0.51640,-0.55813
3.15000,-0.52467,-0.57206
3.20000,-0.53320,-0.58614
3.25000,-0.54160,-0.60034
3.30000,-0.54987,-0.61528
3.35000,-0.55827,-0.62921
3.40000,-0.56653,-0.64424
3.45000,-0.57493,-0.66013
3.50000,-0.58347,-0.67473
3.55000,-0.59147,-0.69019
3.60000,-0.60013,-0.70471
3.65000,-0.60840,-0.72149
3.70000,-0.61653,-0.73562
3.75000,-0.62493,-0.75173
3.80000,-0.63360,-0.76630
3.85000,-0.64160,-0.78315
3.90000,-0.64973,-0.79674
3.95000,-0.65840,-0.81449
4.00000,-0.66653,-0.82927
4.05000,-0.67480,-0.84551
4.10000,-0.68320,-0.86133
4.15000,-0.69160,-0.87901
4.20000,-0.69986,-0.89360
4.25000,-0.70840,-0.91077
4.30000,-0.71680,-0.92873
4.35000,-0.72506,-0.94364
4.40000,-0.73346,-0.95889
4.45000,-0.74173,-0.97858
4.50000,-0.75013,-0.99284
4.55000,-0.75853,-1.01035
4.60000,-0.76680,-1.02626
4.65000,-0.77506,-1.04367
4.70000,-0.78346,-1.05863
4.75000,-0.79160,-1.07635
4.80000,-0.79986,-1.09196
4.85000,-0.80826,-1.10947
4.90000,-0.81653,-1.12459
4.95000,-0.82480,-1.14173
5.00000,-0.83346,-1.15755
5.05000,-0.84173,-1.17492
5.10000,-0.84986,-1.19038
5.15000,-0.85840,-1.20742
5.20000,-0.86693,-1.22356
5.25000,-0.87506,-1.24056
5.30000,-0.88346,-1.25694
5.35000,-0.89186,-1.27331
5.40000,-0.90013,-1.29010
5.45000,-0.90840,-1.30560
5.50000,-0.91666,-1.32326
5.55000,-0.92506,-1.33793
5.60000,-0.93346,-1.35612
5.65000,-0.94160,-1.37168
5.70000,-0.94986,-1.38912
5.75000,-0.95840,-1.40410
5.80000,-0.96666,-1.42305
5.85000,-0.97493,-1.43706
5.90000,-0.98346,-1.45516
5.95000,-0.99186,-1.47033
6.00000,-0.99986,-1.48925
6.05000,-1.00826,-1.50415
6.10000,-1.01680,-1.52387
6.15000,-1.02493,-1.53932
6.20000,-1.03320,-1.55826
6.25000,-1.04160,-1.57363
6.30000,-1.04986,-1.59233
6.35000,-1.05813,-1.60787
6.40000,-1.06653,-1.62579
6.45000,-1.07480,-1.64049
6.50000,-1.08306,-1.65776
6.55000,-1.09146,-1.67302
6.60000,-1.09986,-1.69072
6.65000,-1.10826,-1.70481
6.70000,-1.11666,-1.72230
6.75000,-1.12480,-1.73735
6.80000,-1.13333,-1.75296
6.85000,-1.14173,-1.76854
6.90000,-1.14986,-1.78155
6.95000,-1.15826,-1.79440
7.00000,-1.16680,-1.80894
7.05000,-1.17466,-1.82441
7.10000,-1.18293,-1.83329
7.15000,-1.19173,-1.83668
7.20000,-1.20000,-1.84454
7.25000,-1.20813,-1.85598
7.30000,-1.21653,-1.86125
7.35000,-1.22506,-1.87451
7.40000,-1.23320,-1.88940
7.45000,-1.24173,-1.90897
7.50000,-1.25013,-1.91630
7.55000,-1.25840,-1.92142
7.60000,-1.26680,-1.91789
7.65000,-1.27506,-1.93762
7.70000,-1.28346,-1.94063
7.75000,-1.29173,-1.95606
7.80000,-1.30000,-1.97558
7.85000,-1.30826,-1.99453
7.90000,-1.31680,-2.01286
7.95000,-1.32493,-2.03003
8.00000,-1.33306,-2.04502
8.05000,-1.34173,-2.06164
8.10000,-1.35000,-2.07771
8.15000,-1.35813,-2.09125
8.20000,-1.36680,-2.10473
8.25000,-1.37506,-2.12154
8.30000,-1.38320,-2.13886
8.35000,-1.39160,-2.12918
8.40000,-1.40026,-2.10201
8.45000,-1.40840,-2.11659
8.50000,-1.41680,-2.12451
8.55000,-1.42520,-2.13268
8.60000,-1.43333,-2.13541
8.65000,-1.44160,-2.13686
8.70000,-1.45000,-2.14165
8.75000,-1.45840,-2.14720
8.80000,-1.46666,-2.15018
8.85000,-1.47493,-2.16601
8.90000,-1.48320,-2.18382
8.95000,-1.49173,-2.20531
9.00000,-1.50000,-2.22124
9.05000,-1.50826,-2.23929
9.10000,-1.51680,-2.25306
9.15000,-1.52520,-2.27078
9.20000,-1.53333,-2.28330
9.25000,-1.54173,-2.29972
9.30000,-1.55026,-2.31280
9.35000,-1.55826,-2.33026
9.40000,-1.56653,-2.34509
9.45000,-1.57506,-2.36335
9.50000,-1.58320,-2.37915
9.55000,-1.59146,-2.39635
9.60000,-1.59986,-2.41175
9.65000,-1.60813,-2.42988
9.70000,-1.61640,-2.44354
9.75000,-1.62480,-2.46235
9.80000,-1.63320,-2.47735
9.85000,-1.64173,-2.49574
9.90000,-1.65013,-2.51036
9.95000,-1.65826,-2.52732
10.00000,-1.66666,-2.54145
10.05000,-1.67520,-2.55838
10.10000,-1.68320,-2.57307
10.15000,-1.69160,-2.58857
10.20000,-1.70026,-2.60357
10.25000,-1.70826,-2.61944
10.30000,-1.71640,-2.63332
10.35000,-1.72506,-2.64851
10.40000,-1.73320,-2.66412
10.45000,-1.74133,-2.67728
10.50000,-1.74973,-2.69192
10.55000,-1.75826,-2.70819
10.60000,-1.76653,-2.72162
10.65000,-1.77493,-2.73639
10.70000,-1.78346,-2.75149
10.75000,-1.79173,-2.76609
10.80000,-1.80013,-2.78045
10.85000,-1.80840,-2.79492
10.90000,-1.81680,-2.80868
10.95000,-1.82506,-2.82223
11.00000,-1.83333,-2.83676
11.05000,-1.84160,-2.84880
11.10000,-1.84986,-2.86261
11.15000,-1.85813,-2.87564
11.20000,-1.86653,-2.88903
11.25000,-1.87520,-2.90328
11.30000,-1.88333,-2.91721
11.35000,-1.89146,-2.92882
11.40000,-1.90013,-2.94389
11.45000,-1.90853,-2.95695
11.50000,-1.91666,-2.97137
11.55000,-1.92506,-2.98235
11.60000,-1.93360,-2.99789
11.65000,-1.94173,-3.00831
11.70000,-1.95000,-3.02154
11.75000,-1.95853,-3.03282
11.80000,-1.96680,-3.04680
11.85000,-1.97493,-3.05815
11.90000,-1.98333,-3.07146
11.95000,-1.99173,-3.08178
12.00000,-2.00000,-3.09709
12.05000,-2.00826,-3.10676
12.10000,-2.01653,-3.12127
12.15000,-2.02506,-3.13143
12.20000,-2.03333,-3.14480
12.25000,-2.04160,-3.15564
12.30000,-2.05013,-3.16898
12.35000,-2.05853,-3.17992
12.40000,-2.06653,-3.19272
12.45000,-2.07506,-3.20346
12.50000,-2.08359,-3.21700
12.55000,-2.09159,-3.22788
12.60000,-2.09986,-3.24151
12.65000,-2.10839,-3.25206
12.70000,-2.11653,-3.26709
12.75000,-2.12479,-3.27534
12.80000,-2.13319,-3.28984
12.85000,-2.14146,-3.29916
12.90000,-2.14973,-3.31455
12.95000,-2.15813,-3.32347
13.00000,-2.16653,-3.33903
13.05000,-2.17493,-3.34871
13.10000,-2.18333,-3.36248
13.15000,-2.19146,-3.37151
13.20000,-2.20013,-3.38482
13.25000,-2.20853,-3.39637
13.30000,-2.21653,-3.40902
13.35000,-2.22493,-3.41659
13.40000,-2.23346,-3.43417
13.45000,-2.24146,-3.44159
13.50000,-2.24973,-3.45409
13.55000,-2.25839,-3.46392
13.60000,-2.26653,-3.47925
13.65000,-2.27466,-3.48767
13.70000,-2.28319,-3.49960
13.75000,-2.29173,-3.51158
13.80000,-2.29999,-3.52435
13.85000,-2.30826,-3.53386
13.90000,-2.31693,-3.54822
13.95000,-2.32506,-3.55826
14.00000,-2.33346,-3.57156
14.05000,-2.34173,-3.58267
14.10000,-2.35013,-3.59434
14.15000,-2.35839,-3.60449
14.20000,-2.36666,-3.61749
14.25000,-2.37506,-3.62877
14.30000,-2.38346,-3.63952
14.35000,-2.39159,-3.65012
14.40000,-2.39986,-3.66185
14.45000,-2.40839,-3.67117
14.50000,-2.41653,-3.68376
14.55000,-2.42466,-3.69198
14.60000,-2.43333,-3.70467
14.65000,-2.44186,-3.71525
14.70000,-2.44999,-3.72512
14.75000,-2.45826,-3.73557
14.80000,-2.46693,-3.74644
14.85000,-2.47506,-3.75645
14.90000,-2.48333,-3.76573
14.95000,-2.49173,-3.77574
15.00000,-2.49986,-3.78406
15.05000,-2.50813,-3.79537
15.10000,-2.51639,-3.80471
15.15000,-2.52493,-3.81555
15.20000,-2.53333,-3.82360
15.25000,-2.54159,-3.83700
15.30000,-2.54986,-3.84182
15.35000,-2.55839,-3.85528
15.40000,-2.56666,-3.86315
15.45000,-2.57479,-3.87495
15.50000,-2.58346,-3.88069
15.55000,-2.59186,-3.89464
15.60000,-2.59986,-3.90101
15.65000,-2.60826,-3.91075
15.70000,-2.61693,-3.91895
15.75000,-2.62493,-3.93043
15.80000,-2.63319,-3.93676
15.85000,-2.64173,-3.94735
15.90000,-2.64986,-3.95371
15.95000,-2.65799,-3.96411
16.00000,-2.66653,-3.97206
16.05000,-2.67479,-3.98238
16.10000,-2.68306,-3.98876
16.15000,-2.69146,-4.00190
16.20000,-2.69986,-4.00734
16.25000,-2.70839,-4.02182
16.30000,-2.71666,-4.02427
16.35000,-2.72493,-4.04174
16.40000,-2.73333,-4.04160
16.45000,-2.74173,-4.05938
16.50000,-2.74986,-4.06142
16.55000,-2.75826,-4.07560
16.60000,-2.76679,-4.07936
16.65000,-2.77493,-4.09483
16.70000,-2.78306,-4.09489
16.75000,-2.79159,-4.11193
16.80000,-2.79986,-4.11199
16.85000,-2.80799,-4.12862
16.90000,-2.81653,-4.12755
16.95000,-2.82493,-4.14617
17.00000,-2.83319,-4.14513
17.05000,-2.84159,-4.16195
17.10000,-2.85013,-4.16291
17.15000,-2.85839,-4.17728
17.20000,-2.86666,-4.17896
17.25000,-2.87506,-4.19443
17.30000,-2.88346,-4.19396
17.35000,-2.89186,-4.20974
17.40000,-2.89999,-4.21012
17.45000,-2.90826,-4.22275
17.50000,-2.91679,-4.22502
17.55000,-2.92493,-4.23805
17.60000,-2.93306,-4.23980
17.65000,-2.94173,-4.25126
17.70000,-2.94999,-4.25633
17.75000,-2.95813,-4.26507
17.80000,-2.96666,-4.27177
17.85000,-2.97519,-4.28210
17.90000,-2.98333,-4.28842
17.95000,-2.99173,-4.29702
18.00000,-3.00026,-4.30280
18.05000,-3.00839,-4.31340
18.10000,-3.01666,-4.31719
18.15000,-3.02519,-4.32656
18.20000,-3.03346,-4.33329
18.25000,-3.04173,-4.34070
18.30000,-3.04999,-4.34713
18.35000,-3.05826,-4.35391
18.40000,-3.06666,-4.36157
18.45000,-3.07493,-4.36779
18.50000,-3.08306,-4.37536
18.55000,-3.09173,-4.38157
18.60000,-3.09999,-4.39102
18.65000,-3.10826,-4.39500
18.70000,-3.11679,-4.40372
18.75000,-3.12519,-4.40907
18.80000,-3.13333,-4.41813
18.85000,-3.14173,-4.41995
18.90000,-3.15026,-4.43076
18.95000,-3.15813,-4.43295
19.00000,-3.16639,-4.44109
19.05000,-3.17479,-4.44633
19.10000,-3.18306,-4.45254
19.15000,-3.19146,-4.45798
19.20000,-3.19986,-4.46515
19.25000,-3.20813,-4.47022
19.30000,-3.21653,-4.47592
19.35000,-3.22493,-4.48113
19.40000,-3.23319,-4.48727
19.45000,-3.24159,-4.49250
19.50000,-3.25013,-4.49903
19.55000,-3.25813,-4.50517
19.60000,-3.26666,-4.50960
19.65000,-3.27519,-4.51696
19.70000,-3.28319,-4.52261
19.75000,-3.29159,-4.52856
19.80000,-3.30013,-4.53417
19.85000,-3.30813,-4.54045
19.90000,-3.31639,-4.54521
19.95000,-3.32493,-4.55140
20.00000,-3.33319,-4.55910
20.05000,-3.34133,-4.56273
20.10000,-3.34986,-4.57037
20.15000,-3.35826,-4.57541
20.20000,-3.36653,-4.58266
20.25000,-3.37493,-4.58715
20.30000,-3.38346,-4.59475
20.35000,-3.39173,-4.59910
20.40000,-3.39999,-4.60652
20.45000,-3.40826,-4.61003
20.50000,-3.41679,-4.61730
20.55000,-3.42506,-4.62256
20.60000,-3.43332,-4.63002
20.65000,-3.44172,-4.63168
20.70000,-3.45012,-4.64292
20.75000,-3.45826,-4.64348
20.80000,-3.46652,-4.65161
20.85000,-3.47506,-4.65391
20.90000,-3.48332,-4.66410
20.95000,-3.49146,-4.66407
21.00000,-3.49999,-4.67429
21.05000,-3.50852,-4.67746
21.10000,-3.51666,-4.68497
21.15000,-3.52506,-4.68647
21.20000,-3.53359,-4.69632
21.25000,-3.54172,-4.69795
21.30000,-3.54999,-4.70561
21.35000,-3.55852,-4.70915
21.40000,-3.56679,-4.71528
21.45000,-3.57492,-4.71965
21.50000,-3.58319,-4.72477
21.55000,-3.59159,-4.72917
21.60000,-3.59986,-4.73393
21.65000,-3.60812,-4.73971
21.70000,-3.61639,-4.74384
21.75000,-3.62506,-4.74969
21.80000,-3.63332,-4.75645
21.85000,-3.64146,-4.76168
21.90000,-3.64999,-4.76511
21.95000,-3.65852,-4.77338
22.00000,-3.66652,-4.77438
22.05000,-3.67492,-4.78171
22.10000,-3.68359,-4.78460
22.15000,-3.69159,-4.79247
22.20000,-3.69986,-4.79284
22.25000,-3.70826,-4.79993
22.30000,-3.71652,-4.80248
22.35000,-3.72479,-4.80767
22.40000,-3.73319,-4.81016
22.45000,-3.74146,-4.81684
22.50000,-3.74972,-4.81859
22.55000,-3.75812,-4.82460
22.60000,-3.76639,-4.82833
22.65000,-3.77492,-4.83387
22.70000,-3.78346,-4.83780
22.75000,-3.79159,-4.84277
22.80000,-3.80012,-4.84588
22.85000,-3.80839,-4.85229
22.90000,-3.81652,-4.85491
22.95000,-3.82479,-4.85842
23.00000,-3.83346,-4.86327
23.05000,-3.84146,-4.86846
23.10000,-3.84986,-4.87136
23.15000,-3.85839,-4.87627
23.20000,-3.86666,-4.88215
23.25000,-3.87479,-4.88343
23.30000,-3.88332,-4.88819
23.35000,-3.89172,-4.89167
23.40000,-3.89999,-4.89746
23.45000,-3.90826,-4.89909
23.50000,-3.91679,-4.90487
23.55000,-3.92492,-4.90660
23.60000,-3.93332,-4.91155
23.65000,-3.94172,-4.91406
23.70000,-3.95012,-4.91706
23.75000,-3.95852,-4.91921
23.80000,-3.96666,-4.92285
23.85000,-3.97492,-4.92252
23.90000,-3.98346,-4.92506
23.95000,-3.99159,-4.92746
24.00000,-3.99986,-4.92799
24.05000,-4.00839,-4.93083
24.10000,-4.01652,-4.93206
24.15000,-4.02466,-4.93606
24.20000,-4.03332,-4.93585
24.25000,-4.04186,-4.94158
24.30000,-4.04999,-4.94170
24.35000,-4.05839,-4.94453
24.40000,-4.06692,-4.94569
24.45000,-4.07506,-4.94805
24.50000,-4.08332,-4.94884
24.55000,-4.09186,-4.95136
24.60000,-4.10012,-4.95189
24.65000,-4.10826,-4.95410
24.70000,-4.11666,-4.95573
24.75000,-4.12492,-4.95647
24.80000,-4.13332,-4.95854
24.85000,-4.14159,-4.95910
24.90000,-4.14972,-4.95979
24.95000,-4.15826,-4.96100
25.00000,-4.16666,-4.96285
25.05000,-4.17479,-4.96343
25.10000,-4.18332,-4.96669
25.15000,-4.19172,-4.96742
25.20000,-4.19972,-4.96802
25.25000,-4.20812,-4.96768
25.30000,-4.21692,-4.97231
25.35000,-4.22492,-4.97204
25.40000,-4.23319,-4.97315
25.45000,-4.24172,-4.97506
25.50000,-4.24986,-4.97638
25.55000,-4.25812,-4.97698
25.60000,-4.26652,-4.97838
25.65000,-4.27479,-4.98099
25.70000,-4.28306,-4.98147
25.75000,-4.29146,-4.98389
25.80000,-4.29972,-4.98572
25.85000,-4.30826,-4.98431
25.90000,-4.31679,-4.99263
25.95000,-4.32492,-4.98821
26.00000,-4.33332,-4.99408
26.05000,-4.34172,-4.99337
26.10000,-4.34986,-4.99889
26.15000,-4.35826,-4.99619
26.20000,-4.36679,-5.00250
26.25000,-4.37492,-5.00194
26.30000,-4.38319,-5.00499
26.35000,-4.39172,-5.00457
26.40000,-4.39986,-5.00996
26.45000,-4.40799,-5.00760
26.50000,-4.41652,-5.01226
26.55000,-4.42492,-5.01303
26.60000,-4.43306,-5.01674
26.65000,-4.44159,-5.01642
26.70000,-4.44999,-5.02073
26.75000,-4.45839,-5.02177
26.80000,-4.46679,-5.02412
26.85000,-4.47506,-5.02605
26.90000,-4.48346,-5.02597
26.95000,-4.49172,-5.02859
27.00000,-4.49986,-5.02901
27.05000,-4.50839,-5.02982
27.10000,-4.51692,-5.03218
27.15000,-4.52506,-5.03385
27.20000,-4.53319,-5.03245
27.25000,-4.54172,-5.03482
27.30000,-4.55012,-5.03527
27.35000,-4.55826,-5.03659
27.40000,-4.56666,-5.03620
27.45000,-4.57519,-5.03980
27.50000,-4.58332,-5.03907
27.55000,-4.59172,-5.04011
27.60000,-4.60026,-5.04196
27.65000,-4.60852,-5.04356
27.70000,-4.61679,-5.04288
27.75000,-4.62519,-5.04569
27.80000,-4.63332,-5.04425
27.85000,-4.64159,-5.05000
27.90000,-4.64986,-5.04023
27.95000,-4.65826,-5.05418
28.00000,-4.66666,-5.04228
28.05000,-4.67479,-5.05370
28.10000,-4.68306,-5.04380
28.15000,-4.69172,-5.05744
28.20000,-4.69999,-5.04709
28.25000,-4.70826,-5.05870
28.30000,-4.71679,-5.04937
28.35000,-4.72532,-5.06116
28.40000,-4.73319,-5.05321
28.45000,-4.74159,-5.06121
28.50000,-4.75026,-5.05652
28.55000,-4.75826,-5.06510
28.60000,-4.76652,-5.06076
28.65000,-4.77492,-5.06682
28.70000,-4.78319,-5.06581
28.75000,-4.79145,-5.06941
28.80000,-4.79985,-5.07061
28.85000,-4.80812,-5.07169
28.90000,-4.81639,-5.07473
28.95000,-4.82479,-5.07647
29.00000,-4.83319,-5.08123
29.05000,-4.84172,-5.08113
29.10000,-4.85012,-5.08759
29.15000,-4.85825,-5.08323
29.20000,-4.86679,-5.09465
29.25000,-4.87506,-5.08562
29.30000,-4.88319,-5.09829
29.35000,-4.89159,-5.09180
29.40000,-4.90012,-5.09984
29.45000,-4.90812,-5.09848
29.50000,-4.91639,-5.10355
29.55000,-4.92492,-5.10235
29.60000,-4.93319,-5.11118
29.65000,-4.94132,-5.10713
29.70000,-4.94985,-5.11358
29.75000,-4.95825,-5.11532
29.80000,-4.96652,-5.11845
29.85000,-4.97492,-5.12021
29.90000,-4.98332,-5.12349
29.95000,-4.99172,-5.12908
30.00000,-5.00012,-5.12526
30.05000,-5.00839,-5.13494
30.10000,-5.01679,-5.12935
30.15000,-5.02505,-5.13677
30.20000,-5.03332,-5.13172
30.25000,-5.04172,-5.14342
30.30000,-5.05012,-5.13631
30.35000,-5.05825,-5.14838
30.40000,-5.06652,-5.14020
30.45000,-5.07505,-5.15238
30.50000,-5.08332,-5.14828
30.55000,-5.09145,-5.15773
30.60000,-5.09999,-5.15565
30.65000,-5.10839,-5.16508
30.70000,-5.11665,-5.16332
30.75000,-5.12505,-5.17290
30.80000,-5.13359,-5.16743
30.85000,-5.14159,-5.18089
30.90000,-5.14999,-5.17558
30.95000,-5.15839,-5.18794
31.00000,-5.16665,-5.18253
31.05000,-5.17492,-5.19317
31.10000,-5.18332,-5.19090
31.15000,-5.19172,-5.19802
31.20000,-5.19999,-5.19738
31.25000,-5.20825,-5.20509
31.30000,-5.21652,-5.20280
31.35000,-5.22505,-5.21147
31.40000,-5.23332,-5.21109
31.45000,-5.24159,-5.21622
31.50000,-5.25012,-5.21867
31.55000,-5.25852,-5.22422
31.60000,-5.26652,-5.22559
31.65000,-5.27505,-5.22983
31.70000,-5.28359,-5.23508
31.75000,-5.29159,-5.23721
31.80000,-5.29985,-5.24215
31.85000,-5.30825,-5.24404
31.90000,-5.31639,-5.24934
31.95000,-5.32465,-5.25167
32.00000,-5.33319,-5.25623
32.05000,-5.34145,-5.26034
32.10000,-5.34972,-5.26427
32.15000,-5.35812,-5.26839
32.20000,-5.36652,-5.27303
32.25000,-5.37505,-5.27726
32.30000,-5.38345,-5.28257
32.35000,-5.39159,-5.28637
32.40000,-5.40012,-5.28925
32.45000,-5.40852,-5.29569
32.50000,-5.41652,-5.29825
32.55000,-5.42479,-5.30173
32.60000,-5.43345,-5.30639
32.65000,-5.44145,-5.31255
32.70000,-5.44972,-5.31268
32.75000,-5.45839,-5.32017
32.80000,-5.46652,-5.32238
32.85000,-5.47465,-5.32749
32.90000,-5.48319,-5.33060
32.95000,-5.49159,-5.33675
33.00000,-5.49999,-5.34000
33.05000,-5.50839,-5.34503
33.10000,-5.51679,-5.34954
33.15000,-5.52505,-5.35334
33.20000,-5.53332,-5.35638
33.25000,-5.54172,-5.36024
33.30000,-5.55012,-5.36344
33.35000,-5.55839,-5.36149
33.40000,-5.56665,-5.35651
33.45000,-5.57505,-5.36121
33.50000,-5.58345,-5.36543
33.55000,-5.59159,-5.36915
33.60000,-5.59972,-5.37311
33.65000,-5.60839,-5.37732
33.70000,-5.61665,-5.38394
33.75000,-5.62492,-5.38477
33.80000,-5.63345,-5.39089
33.85000,-5.64172,-5.39420
33.90000,-5.64985,-5.39782
33.95000,-5.65839,-5.40252
34.00000,-5.66692,-5.40873
34.05000,-5.67505,-5.41036
34.10000,-5.68332,-5.41849
34.15000,-5.69185,-5.41965
34.20000,-5.69999,-5.42781
34.25000,-5.70825,-5.42802
34.30000,-5.71652,-5.43652
34.35000,-5.72505,-5.43743
34.40000,-5.73319,-5.44462
34.45000,-5.74145,-5.44678
34.50000,-5.74972,-5.45150
34.55000,-5.75839,-5.45594
34.60000,-5.76665,-5.46141
34.65000,-5.77479,-5.46485
34.70000,-5.78345,-5.46897
34.75000,-5.79185,-5.47325
34.80000,-5.79985,-5.47702
34.85000,-5.80825,-5.47966
34.90000,-5.81679,-5.48296
34.95000,-5.82479,-5.48936
35.00000,-5.83319,-5.49083
35.05000,-5.84172,-5.49815
35.10000,-5.84999,-5.50040
35.15000,-5.85825,-5.50541
35.20000,-5.86665,-5.50607
35.25000,-5.87492,-5.51352
35.30000,-5.88319,-5.51227
35.35000,-5.89145,-5.52153
35.40000,-5.89985,-5.52051
35.45000,-5.90839,-5.52777
35.50000,-5.91665,-5.52892
35.55000,-5.92492,-5.53534
35.60000,-5.93332,-5.53577
35.65000,-5.94172,-5.54230
35.70000,-5.94985,-5.54459
35.75000,-5.95812,-5.54803
35.80000,-5.96679,-5.55259
35.85000,-5.97492,-5.55797
35.90000,-5.98319,-5.55757
35.95000,-5.99172,-5.56488
36.00000,-5.99985,-5.56802
36.05000,-6.00812,-5.57192
36.10000,-6.01652,-5.57490
36.15000,-6.02492,-5.57982
36.20000,-6.03305,-5.58693
36.25000,-6.04145,-5.57815
36.30000,-6.05012,-5.59997
36.35000,-6.05825,-5.58807
36.40000,-6.06665,-5.60426
36.45000,-6.07505,-5.59708
36.50000,-6.08345,-5.60845
36.55000,-6.09172,-5.60502
36.60000,-6.09998,-5.61551
36.65000,-6.10825,-5.60848
36.70000,-6.11679,-5.62270
36.75000,-6.12492,-5.61671
36.80000,-6.13319,-5.62748
36.85000,-6.14172,-5.62311
36.90000,-6.14998,-5.63392
36.95000,-6.15812,-5.63096
37.00000,-6.16665,-5.63965
37.05000,-6.17519,-5.63894
37.10000,-6.18319,-5.64578
37.15000,-6.19172,-5.64466
37.20000,-6.20025,-5.65435
37.25000,-6.20825,-5.65235
37.30000,-6.21665,-5.65879
37.35000,-6.22505,-5.65915
37.40000,-6.23345,-5.66680
37.45000,-6.24172,-5.66717
37.50000,-6.24998,-5.67315
37.55000,-6.25838,-5.67420
37.60000,-6.26665,-5.68063
37.65000,-6.27492,-5.68223
37.70000,-6.28318,-5.68580
37.75000,-6.29172,-5.68973
37.80000,-6.29998,-5.69459
37.85000,-6.30812,-5.69725
37.90000,-6.31678,-5.70130
37.95000,-6.32518,-5.70678
38.00000,-6.33332,-5.70904
38.05000,-6.34172,-5.71239
38.10000,-6.35025,-5.71673
38.15000,-6.35825,-5.72137
38.20000,-6.36652,-5.72169
38.25000,-6.37505,-5.72728
38.30000,-6.38318,-5.72983
38.35000,-6.39145,-5.73410
38.40000,-6.39985,-5.73622
38.45000,-6.40812,-5.74140
38.50000,-6.41625,-5.74531
38.55000,-6.42478,-5.74906
38.60000,-6.43305,-5.75325
38.65000,-6.44172,-5.75761
38.70000,-6.45012,-5.76308
38.75000,-6.45825,-5.76511
38.80000,-6.46665,-5.76991
38.85000,-6.47505,-5.77408
38.90000,-6.48318,-5.77674
38.95000,-6.49158,-5.78078
39.00000,-6.50012,-5.78566
39.05000,-6.50812,-5.78915
39.10000,-6.51652,-5.79014
39.15000,-6.52505,-5.79776
39.20000,-6.53305,-5.79867
39.25000,-6.54132,-5.80191
39.30000,-6.54985,-5.80696
39.35000,-6.55825,-5.81036
39.40000,-6.56652,-5.81482
39.45000,-6.57492,-5.82024
39.50000,-6.58332,-5.82369
39.55000,-6.59158,-5.82863
39.60000,-6.59998,-5.83220
39.65000,-6.60838,-5.83747
39.70000,-6.61678,-5.84057
39.75000,-6.62518,-5.84410
39.80000,-6.63332,-5.84925
39.85000,-6.64158,-5.84983
39.90000,-6.65012,-5.85585
39.95000,-6.65825,-5.85859
40.00000,-6.66652,-5.86179
40.05000,-6.67492,-5.86456
40.10000,-6.68318,-5.87079
40.15000,-6.69145,-5.86983
40.20000,-6.70012,-5.87857
40.25000,-6.70852,-5.88077
40.30000,-6.71665,-5.88526
40.35000,-6.72505,-5.88608
40.40000,-6.73358,-5.89289
40.45000,-6.74172,-5.89415
40.50000,-6.75012,-5.89763
40.55000,-6.75852,-5.90201
40.60000,-6.76678,-5.90556
40.65000,-6.77505,-5.90860
40.70000,-6.78345,-5.91537
40.75000,-6.79172,-5.91502
40.80000,-6.79998,-5.92255
40.85000,-6.80825,-5.92105
40.90000,-6.81652,-5.93277
40.95000,-6.82505,-5.92685
41.00000,-6.83332,-5.94092
41.05000,-6.84158,-5.93583
41.10000,-6.85012,-5.94738
41.15000,-6.85852,-5.94477
41.20000,-6.86665,-5.95442
41.25000,-6.87492,-5.94999
41.30000,-6.88358,-5.96152
41.35000,-6.89158,-5.95915
41.40000,-6.89985,-5.96868
41.45000,-6.90838,-5.96651
41.50000,-6.91652,-5.97418
41.55000,-6.92465,-5.97450
41.60000,-6.93318,-5.98072
41.65000,-6.94145,-5.98209
41.70000,-6.94985,-5.98756
41.75000,-6.95812,-5.99198
41.80000,-6.96652,-5.99357
41.85000,-6.97492,-5.99852
41.90000,-6.98345,-6.00333
41.95000,-6.99158,-6.00549
42.00000,-6.99998,-6.00658
42.05000,-7.00852,-6.01337
42.10000,-7.01652,-6.01541
42.15000,-7.02492,-6.01775
42.20000,-7.03358,-6.02196
42.25000,-7.04158,-6.02601
42.30000,-7.04985,-6.02755
42.35000,-7.05838,-6.03084
42.40000,-7.06652,-6.03434
42.45000,-7.07465,-6.03753
42.50000,-7.08318,-6.03663
42.55000,-7.09158,-6.04711
42.60000,-7.09985,-6.04521
42.65000,-7.10825,-6.05318
42.70000,-7.11678,-6.05233
42.75000,-7.12505,-6.06138
42.80000,-7.13332,-6.05830
42.85000,-7.14158,-6.06916
42.90000,-7.15012,-6.06353
42.95000,-7.15838,-6.07808
43.00000,-7.16665,-6.07271
43.05000,-7.17505,-6.08375
43.10000,-7.18345,-6.08111
43.15000,-7.19158,-6.09205
43.20000,-7.19972,-6.08580
43.25000,-7.20838,-6.09928
43.30000,-7.21652,-6.09751
43.35000,-7.22478,-6.10456
43.40000,-7.23332,-6.10148
43.45000,-7.24185,-6.11706
43.50000,-7.24985,-6.11146
43.55000,-7.25838,-6.11979
43.60000,-7.26692,-6.12105
43.65000,-7.27505,-6.12876
43.70000,-7.28345,-6.12840
43.75000,-7.29185,-6.13576
43.80000,-7.29998,-6.13657
43.85000,-7.30825,-6.14236
43.90000,-7.31665,-6.14396
43.95000,-7.32505,-6.15028
44.00000,-7.33332,-6.15094
44.05000,-7.34158,-6.15663
44.10000,-7.34985,-6.15888
44.15000,-7.35852,-6.16512
44.20000,-7.36678,-6.16686
44.25000,-7.37492,-6.17217
44.30000,-7.38345,-6.17616
44.35000,-7.39185,-6.18040
44.40000,-7.39985,-6.18205
44.45000,-7.40825,-6.18810
44.50000,-7.41692,-6.18994
44.55000,-7.42492,-6.19415
44.60000,-7.43318,-6.19683
44.65000,-7.44158,-6.20073
44.70000,-7.44985,-6.20404
44.75000,-7.45811,-6.20908
44.80000,-7.46652,-6.20832
44.85000,-7.47478,-6.22031
44.90000,-7.48305,-6.21453
44.95000,-7.49145,-6.22595
45.00000,-7.49985,-6.22294
45.05000,-7.50825,-6.23522
45.10000,-7.51665,-6.23113
45.15000,-7.52478,-6.24039
45.20000,-7.53332,-6.23852
45.25000,-7.54171,-6.24732
45.30000,-7.54985,-6.24534
45.35000,-7.55811,-6.25392
45.40000,-7.56678,-6.25197
45.45000,-7.57478,-6.26209
45.50000,-7.58305,-6.25731
45.55000,-7.59171,-6.26605
45.60000,-7.59998,-6.27033
45.65000,-7.60811,-6.27194
45.70000,-7.61651,-6.27231
45.75000,-7.62491,-6.28214
45.80000,-7.63318,-6.28088
45.85000,-7.64158,-6.28836
45.90000,-7.65011,-6.28944
45.95000,-7.65838,-6.29943
46.00000,-7.66678,-6.29460
46.05000,-7.67505,-6.31020
46.10000,-7.68358,-6.30195
46.15000,-7.69171,-6.31787
46.20000,-7.69998,-6.31189
46.25000,-7.70825,-6.32288
46.30000,-7.71665,-6.32018
46.35000,-7.72491,-6.33191
46.40000,-7.73305,-6.32541
46.45000,-7.74171,-6.34122
46.50000,-7.74985,-6.33423
46.55000,-7.75811,-6.34643
46.60000,-7.76678,-6.34326
46.65000,-7.77518,-6.35748
46.70000,-7.78331,-6.34905
46.75000,-7.79171,-6.36396
46.80000,-7.80025,-6.35856
46.85000,-7.80825,-6.36705
46.90000,-7.81665,-6.36750
46.95000,-7.82505,-6.37450
47.00000,-7.83345,-6.37348
47.05000,-7.84158,-6.38085
47.10000,-7.84998,-6.38379
47.15000,-7.85838,-6.38685
47.20000,-7.86665,-6.38838
47.25000,-7.87491,-6.39605
47.30000,-7.88318,-6.39480
47.35000,-7.89171,-6.39745
47.40000,-7.89998,-6.40529
47.45000,-7.90811,-6.40570
47.50000,-7.91678,-6.40703
47.55000,-7.92518,-6.41276
47.60000,-7.93318,-6.41535
47.65000,-7.94158,-6.41591
47.70000,-7.95025,-6.42050
47.75000,-7.95825,-6.42464
47.80000,-7.96651,-6.42450
47.85000,-7.97505,-6.43055
47.90000,-7.98331,-6.43275
47.95000,-7.99145,-6.43485
48.00000,-7.99985,-6.43793
48.05000,-8.00825,-6.44147
48.10000,-8.01651,-6.44242
48.15000,-8.02478,-6.44518
48.20000,-8.03305,-6.44819
48.25000,-8.04158,-6.44961
48.30000,-8.04998,-6.45496
48.35000,-8.05811,-6.45611
48.40000,-8.06665,-6.45720
48.45000,-8.07505,-6.46370
48.50000,-8.08318,-6.46387
48.55000,-8.09145,-6.46553
48.60000,-8.10011,-6.46935
48.65000,-8.10825,-6.47192
48.70000,-8.11638,-6.47155
48.75000,-8.12505,-6.47442
48.80000,-8.13318,-6.47955
48.85000,-8.14145,-6.47853
48.90000,-8.14985,-6.48228
48.95000,-8.15838,-6.48734
49.00000,-8.16665,-6.48750
49.05000,-8.17491,-6.49108
49.10000,-8.18331,-6.49427
49.15000,-8.19158,-6.49467
49.20000,-8.19998,-6.49851
49.25000,-8.20825,-6.49945
49.30000,-8.21665,-6.50123
49.35000,-8.22491,-6.50431
49.40000,-8.23318,-6.50581
49.45000,-8.24158,-6.50867
49.50000,-8.24998,-6.50898
49.55000,-8.25825,-6.51575
49.60000,-8.26651,-6.51235
49.65000,-8.27505,-6.51957
49.70000,-8.28331,-6.52115
49.75000,-8.29145,-6.52303
49.80000,-8.30011,-6.52602
49.85000,-8.30851,-6.53007
49.90000,-8.31678,-6.53085
49.95000,-8.32518,-6.53286
50.00000,-8.33358,-6.53549
50.05000,-8.34171,-6.53752
50.10000,-8.35011,-6.53635
50.15000,-8.35851,-6.54152
50.20000,-8.36678,-6.54001
50.25000,-8.37491,-6.54276
50.30000,-8.38331,-6.54555
50.35000,-8.39158,-6.54404
50.40000,-8.39998,-6.54853
50.45000,-8.40811,-6.54866
50.50000,-8.41638,-6.55124
50.55000,-8.42491,-6.55251
50.60000,-8.43318,-6.55617
50.65000,-8.44145,-6.55724
50.70000,-8.45011,-6.55900
50.75000,-8.45851,-6.56250
50.80000,-8.46651,-6.56364
50.85000,-8.47491,-6.56411
50.90000,-8.48345,-6.56805
50.95000,-8.49171,-6.56928
51.00000,-8.49998,-6.57201
51.05000,-8.50851,-6.57160
51.10000,-8.51665,-6.57629
51.15000,-8.52478,-6.57367
51.20000,-8.53318,-6.57808
51.25000,-8.54145,-6.57716
51.30000,-8.54971,-6.58071
51.35000,-8.55811,-6.58091
51.40000,-8.56651,-6.58402
51.45000,-8.57505,-6.58464
51.50000,-8.58345,-6.58822
51.55000,-8.59145,-6.58803
51.60000,-8.59998,-6.58970
51.65000,-8.60838,-6.59086
51.70000,-8.61651,-6.59515
51.75000,-8.62491,-6.59107
51.80000,-8.63358,-6.59749
51.85000,-8.64158,-6.59729
51.90000,-8.64985,-6.59925
51.95000,-8.65838,-6.59756
52.00000,-8.66651,-6.60300
52.05000,-8.67465,-6.59741
52.10000,-8.68318,-6.60283
52.15000,-8.69171,-6.59944
52.20000,-8.69985,-6.60575
52.25000,-8.70825,-6.59946
52.30000,-8.71665,-6.60773
52.35000,-8.72505,-6.60228
52.40000,-8.73345,-6.60818
52.45000,-8.74171,-6.60533
52.50000,-8.75011,-6.60882
52.55000,-8.75851,-6.60954
52.60000,-8.76665,-6.60952
52.65000,-8.77491,-6.60873
52.70000,-8.78345,-6.61148
52.75000,-8.79158,-6.61196
52.80000,-8.79985,-6.61149
52.85000,-8.80838,-6.61357
52.90000,-8.81665,-6.61576
52.95000,-8.82478,-6.61548
53.00000,-8.83331,-6.61543
53.05000,-8.84185,-6.62067
53.10000,-8.84985,-6.61853
53.15000,-8.85824,-6.62136
53.20000,-8.86691,-6.61941
53.25000,-8.87504,-6.62467
53.30000,-8.88331,-6.62118
53.35000,-8.89171,-6.62396
53.40000,-8.90011,-6.62180
53.45000,-8.90824,-6.62496
53.50000,-8.91665,-6.62215
53.55000,-8.92504,-6.62461
53.60000,-8.93331,-6.62212
53.65000,-8.94158,-6.62647
53.70000,-8.94971,-6.62239
53.75000,-8.95838,-6.62585
53.80000,-8.96665,-6.62678
53.85000,-8.97491,-6.62937
53.90000,-8.98345,-6.62807
53.95000,-8.99184,-6.63194
54.00000,-8.99998,-6.63148
54.05000,-9.00838,-6.63306
54.10000,-9.01691,-6.63365
54.15000,-9.02491,-6.63610
54.20000,-9.03318,-6.63571
54.25000,-9.04158,-6.63784
54.30000,-9.04971,-6.63745
54.35000,-9.05798,-6.64136
54.40000,-9.06638,-6.64179
54.45000,-9.07478,-6.64393
54.50000,-9.08304,-6.64669
54.55000,-9.09144,-6.64907
54.60000,-9.09971,-6.65161
54.65000,-9.10824,-6.65180
54.70000,-9.11664,-6.65694
54.75000,-9.12478,-6.65469
54.80000,-9.13331,-6.65777
54.85000,-9.14171,-6.65947
54.90000,-9.14984,-6.66241
54.95000,-9.15824,-6.66309
55.00000,-9.16691,-6.66823
55.05000,-9.17491,-6.66765
55.10000,-9.18304,-6.67022
55.15000,-9.19171,-6.66994
55.20000,-9.19984,-6.67590
55.25000,-9.20798,-6.67342
55.30000,-9.21651,-6.67651
55.35000,-9.22491,-6.67787
55.40000,-9.23318,-6.68163
55.45000,-9.24158,-6.68047
55.50000,-9.25011,-6.68620
55.55000,-9.25838,-6.68533
55.60000,-9.26664,-6.68937
55.65000,-9.27491,-6.68850
55.70000,-9.28344,-6.69194
55.75000,-9.29184,-6.69387
55.80000,-9.29998,-6.69654
55.85000,-9.30824,-6.69660
55.90000,-9.31678,-6.69905
55.95000,-9.32491,-6.70242
56.00000,-9.33318,-6.70124
56.05000,-9.34171,-6.70563
56.10000,-9.34998,-6.70859
56.15000,-9.35811,-6.70848
56.20000,-9.36678,-6.71294
56.25000,-9.37518,-6.71716
56.30000,-9.38331,-6.71860
56.35000,-9.39158,-6.72091
56.40000,-9.40024,-6.72234
56.45000,-9.40838,-6.72970
56.50000,-9.41678,-6.72471
56.55000,-9.42518,-6.73547
56.60000,-9.43344,-6.73183
56.65000,-9.44158,-6.73838
56.70000,-9.44998,-6.73634
56.75000,-9.45824,-6.74174
56.80000,-9.46664,-6.74148
56.85000,-9.47491,-6.74799
56.90000,-9.48318,-6.74586
56.95000,-9.49171,-6.75227
57.00000,-9.49998,-6.75449
57.05000,-9.50811,-6.75733
57.10000,-9.51664,-6.75821
57.15000,-9.52518,-6.76361
57.20000,-9.53304,-6.76553
57.25000,-9.54158,-6.76627
57.30000,-9.55011,-6.77090
57.35000,-9.55824,-6.77192
57.40000,-9.56651,-6.77653
57.45000,-9.57504,-6.77445
57.50000,-9.58318,-6.78227
57.55000,-9.59144,-6.77814
57.60000,-9.59984,-6.78620
57.65000,-9.60811,-6.78212
57.70000,-9.61624,-6.78916
57.75000,-9.62464,-6.78633
57.80000,-9.63304,-6.79430
57.85000,-9.64158,-6.79158
57.90000,-9.65011,-6.80215
57.95000,-9.65824,-6.79853
58.00000,-9.66664,-6.80451
58.05000,-9.67518,-6.80512
58.10000,-9.68331,-6.81039
58.15000,-9.69158,-6.80831
58.20000,-9.70011,-6.81208
58.25000,-9.70811,-6.81381
58.30000,-9.71624,-6.81318
58.35000,-9.72491,-6.81609
58.40000,-9.73318,-6.81871
58.45000,-9.74131,-6.82055
58.50000,-9.74984,-6.82152
58.55000,-9.75838,-6.82859
58.60000,-9.76664,-6.82744
58.65000,-9.77504,-6.83326
58.70000,-9.78331,-6.83176
58.75000,-9.79171,-6.83599
58.80000,-9.79998,-6.83507
58.85000,-9.80824,-6.84220
58.90000,-9.81678,-6.84017
58.95000,-9.82518,-6.84730
59.00000,-9.83344,-6.84720
59.05000,-9.84158,-6.85100
59.10000,-9.85011,-6.85273
59.15000,-9.85824,-6.85728
59.20000,-9.86638,-6.85867
59.25000,-9.87491,-6.86154
59.30000,-9.88318,-6.86553
59.35000,-9.89144,-6.86802
59.40000,-9.89998,-6.87272
59.45000,-9.90851,-6.87817
59.50000,-9.91664,-6.88334
59.55000,-9.92504,-6.88166
59.60000,-9.93358,-6.89510
59.65000,-9.94171,-6.88664
59.70000,-9.95011,-6.90227
59.75000,-9.95864,-6.89706
59.80000,-9.96691,-6.90853
59.85000,-9.97504,-6.90513
59.90000,-9.98331,-6.91581
59.95000,-9.99158,-6.91230
60.00000,-10.00011,-6.92366
60.05000,-10.00824,-6.92182
60.10000,-10.01651,-6.93158
60.15000,-10.02504,-6.92827
60.20000,-10.03331,-6.94166
60.25000,-10.04158,-6.93943
60.30000,-10.04998,-6.94856
60.35000,-10.05851,-6.95051
60.40000,-10.06664,-6.95716
60.45000,-10.07504,-6.96151
60.50000,-10.08358,-6.96609
60.55000,-10.09171,-6.97329
60.60000,-10.09998,-6.97573
60.65000,-10.10837,-6.98048
60.70000,-10.11651,-6.98382
60.75000,-10.12478,-6.98878
60.80000,-10.13318,-6.99055
60.85000,-10.14144,-6.99832
60.90000,-10.14984,-7.00032
60.95000,-10.15824,-7.00855
61.00000,-10.16637,-7.00993
61.05000,-10.17491,-7.01635
61.10000,-10.18331,-7.02099
61.15000,-10.19158,-7.02512
61.20000,-10.19998,-7.02963
61.25000,-10.20851,-7.03450
61.30000,-10.21651,-7.03944
61.35000,-10.22491,-7.04187
61.40000,-10.23344,-7.04753
61.45000,-10.24158,-7.05106
61.50000,-10.24984,-7.05736
61.55000,-10.25837,-7.06044
61.60000,-10.26651,-7.06895
61.65000,-10.27464,-7.06794
61.70000,-10.28317,-7.07835
61.75000,-10.29158,-7.07979
61.80000,-10.29998,-7.08971
61.85000,-10.30824,-7.09132
61.90000,-10.31678,-7.09831
61.95000,-10.32504,-7.10409
62.00000,-10.33358,-7.11027
62.05000,-10.34171,-7.11377
62.10000,-10.35011,-7.11842
62.15000,-10.35837,-7.12431
62.20000,-10.36664,-7.13109
62.25000,-10.37491,-7.13174
62.30000,-10.38331,-7.14023
62.35000,-10.39144,-7.14523
62.40000,-10.39984,-7.14890
62.45000,-10.40837,-7.15681
62.50000,-10.41651,-7.16060
62.55000,-10.42478,-7.16682
62.60000,-10.43344,-7.17014
62.65000,-10.44184,-7.17837
62.70000,-10.44984,-7.18135
62.75000,-10.45824,-7.18466
62.80000,-10.46677,-7.19023
62.85000,-10.47504,-7.19439
62.90000,-10.48331,-7.19734
62.95000,-10.49197,-7.20342
63.00000,-10.50011,-7.20723
63.05000,-10.50837,-7.20970
63.10000,-10.51677,-7.21335
63.15000,-10.52517,-7.21855
63.20000,-10.53344,-7.22066
63.25000,-10.54157,-7.22512
63.30000,-10.54984,-7.22549
63.35000,-10.55837,-7.23010
63.40000,-10.56664,-7.23217
63.45000,-10.57477,-7.23625
63.50000,-10.58344,-7.23811
63.55000,-10.59184,-7.24266
63.60000,-10.59984,-7.24532
63.65000,-10.60824,-7.24613
63.70000,-10.61677,-7.25131
63.75000,-10.62491,-7.25576
63.80000,-10.63317,-7.25680
63.85000,-10.64171,-7.26177
63.90000,-10.64971,-7.26454
63.95000,-10.65797,-7.26560
64.00000,-10.66651,-7.26996
64.05000,-10.67491,-7.27511
64.10001,-10.68317,-7.27805
64.15000,-10.69157,-7.28180
64.20000,-10.69984,-7.28452
64.25000,-10.70824,-7.28710
64.30000,-10.71664,-7.29200
64.35001,-10.72477,-7.29408
64.40000,-10.73331,-7.29716
64.45000,-10.74171,-7.30447
64.50000,-10.74984,-7.30624
64.55000,-10.75824,-7.30854
64.60001,-10.76691,-7.31529
64.65000,-10.77477,-7.31907
64.70000,-10.78304,-7.31990
64.75000,-10.79157,-7.32474
64.80000,-10.79984,-7.33029
64.85001,-10.80811,-7.33286
64.90000,-10.81664,-7.33763
64.95000,-10.82504,-7.34220
65.00000,-10.83331,-7.34753
65.05000,-10.84157,-7.34846
65.10001,-10.85011,-7.35617
65.15000,-10.85851,-7.35884
65.20000,-10.86664,-7.36496
65.25000,-10.87504,-7.36572
65.30000,-10.88344,-7.37151
65.35001,-10.89171,-7.37381
65.40000,-10.89997,-7.37933
65.45000,-10.90824,-7.38009
65.50000,-10.91677,-7.38726
65.55000,-10.92491,-7.39055
65.60001,-10.93317,-7.39354
65.65000,-10.94157,-7.39639
65.70001,-10.94997,-7.40389
65.75000,-10.95811,-7.40403
65.80000,-10.96664,-7.41126
65.85001,-10.97517,-7.41488
65.90000,-10.98317,-7.41827
65.95001,-10.99171,-7.42156
66.00000,-11.00037,-7.42749
66.05000,-11.00837,-7.43070
66.10001,-11.01677,-7.43445
66.15000,-11.02517,-7.43867
66.20001,-11.03344,-7.44083
66.25000,-11.04171,-7.44427
66.30000,-11.04997,-7.44563
66.35001,-11.05824,-7.45191
66.40000,-11.06664,-7.45085
66.45001,-11.07491,-7.46185
66.50000,-11.08317,-7.45608
66.55000,-11.09171,-7.46830
66.60001,-11.09997,-7.46458
66.65000,-11.10811,-7.47526
66.70001,-11.11664,-7.47292
66.75000,-11.12504,-7.48098
66.80000,-11.13304,-7.48041
66.85001,-11.14157,-7.48586
66.90000,-11.15024,-7.48929
66.95001,-11.15837,-7.49769
67.00000,-11.16664,-7.49511
67.05000,-11.17517,-7.50296
67.10001,-11.18331,-7.50366
67.15000,-11.19157,-7.50792
67.20001,-11.19984,-7.50986
67.25000,-11.20811,-7.51283
67.30000,-11.21637,-7.51596
67.35001,-11.22477,-7.51921
67.40000,-11.23304,-7.52523
67.45001,-11.24157,-7.52935
67.50000,-11.24997,-7.53283
67.55000,-11.25811,-7.53799
67.60001,-11.26664,-7.54254
67.65000,-11.27517,-7.54645
67.70001,-11.28317,-7.55202
67.75000,-11.29157,-7.55220
67.80000,-11.30024,-7.56092
67.85001,-11.30824,-7.56163
67.90000,-11.31651,-7.56777
67.95001,-11.32504,-7.56749
68.00000,-11.33317,-7.57615
68.05000,-11.34144,-7.57580
68.10001,-11.34984,-7.58552
68.15000,-11.35824,-7.58726
68.20001,-11.36651,-7.59600
68.25000,-11.37477,-7.59446
68.30000,-11.38331,-7.60529
68.35001,-11.39157,-7.60375
68.40000,-11.39997,-7.61453
68.45001,-11.40837,-7.61517
68.50000,-11.41677,-7.62233
68.55000,-11.42504,-7.62521
68.60001,-11.43331,-7.63307
68.65000,-11.44157,-7.63275
68.70001,-11.45011,-7.64145
68.75000,-11.45824,-7.64555
68.80000,-11.46651,-7.64873
68.85001,-11.47504,-7.65350
68.90000,-11.48331,-7.65797
68.95001,-11.49144,-7.66613
69.00000,-11.49997,-7.66676
69.05000,-11.50850,-7.67721
69.10001,-11.51664,-7.67692
69.15000,-11.52504,-7.68696
69.20001,-11.53357,-7.68714
69.25000,-11.54184,-7.69533
69.30000,-11.55011,-7.69664
69.35001,-11.55850,-7.70472
69.40000,-11.56677,-7.70684
69.45001,-11.57504,-7.71386
69.50000,-11.58330,-7.71775
69.55000,-11.59171,-7.72059
69.60001,-11.59997,-7.72949
69.65000,-11.60824,-7.73007
69.70001,-11.61637,-7.73729
69.75000,-11.62491,-7.73987
69.80000,-11.63330,-7.74789
69.85001,-11.64144,-7.75128
69.90000,-11.64997,-7.75807
69.95001,-11.65850,-7.76292
70.00000,-11.66664,-7.76979
70.05000,-11.67504,-7.77093
70.10001,-11.68357,-7.78052
70.15000,-11.69171,-7.78257
70.20001,-11.69997,-7.78672
70.25000,-11.70824,-7.79046
70.30000,-11.71637,-7.79448
70.35001,-11.72450,-7.79877
70.40000,-11.73304,-7.80392
70.45001,-11.74144,-7.80900
70.50000,-11.74970,-7.81407
70.55000,-11.75810,-7.82342
70.60001,-11.76637,-7.82219
70.65000,-11.77491,-7.82870
70.70001,-11.78317,-7.83489
70.75000,-11.79130,-7.83902
70.80000,-11.79997,-7.83745
70.85001,-11.80837,-7.85067
70.90000,-11.81650,-7.85047
70.95001,-11.82490,-7.85422
71.00000,-11.83344,-7.85775
71.05000,-11.84144,-7.86177
71.10001,-11.84984,-7.86145
71.15000,-11.85837,-7.86598
71.20001,-11.86650,-7.86920
71.25000,-11.87464,-7.86803
71.30000,-11.88317,-7.87869
71.35001,-11.89157,-7.87360
71.40000,-11.89984,-7.88381
71.45001,-11.90837,-7.88162
71.50000,-11.91677,-7.89190
71.55000,-11.92504,-7.88814
71.60001,-11.93344,-7.89632
71.65000,-11.94170,-7.89508
71.70001,-11.95024,-7.90135
71.75000,-11.95850,-7.89927
71.80000,-11.96664,-7.90837
71.85001,-11.97504,-7.90151
71.90000,-11.98344,-7.91193
71.95001,-11.99157,-7.90685
72.00000,-11.99984,-7.91259
72.05000,-12.00837,-7.91175
72.10001,-12.01664,-7.91665
72.15000,-12.02490,-7.91279
72.20001,-12.03344,-7.91642
72.25000,-12.04184,-7.92038
72.30000,-12.04984,-7.91913
72.35001,-12.05824,-7.92127
72.40000,-12.06690,-7.92293
72.45001,-12.07490,-7.92723
72.50000,-12.08330,-7.92643
72.55000,-12.09170,-7.93193
72.60001,-12.09997,-7.93121
72.65000,-12.10824,-7.93549
72.70001,-12.11664,-7.93766
72.75000,-12.12490,-7.94230
72.80000,-12.13317,-7.94267
72.85001,-12.14157,-7.94858
72.90000,-12.14984,-7.94851
72.95001,-12.15837,-7.95505
73.00000,-12.16664,-7.94952
73.05000,-12.17490,-7.95917
73.10001,-12.18344,-7.95988
73.15000,-12.19184,-7.96042
73.20001,-12.19984,-7.96425
73.25000,-12.20824,-7.96235
73.30000,-12.21677,-7.96898
73.35001,-12.22477,-7.96945
73.40000,-12.23317,-7.97101
73.45001,-12.24170,-7.97175
73.50000,-12.24984,-7.97777
73.55000,-12.25810,-7.97484
73.60001,-12.26650,-7.98056
73.65000,-12.27477,-7.97902
73.70001,-12.28304,-7.98639
73.75000,-12.29157,-7.98219
73.80000,-12.29970,-7.98936
73.85001,-12.30824,-7.98815
73.90000,-12.31664,-7.99351
73.95001,-12.32477,-7.99331
74.00000,-12.33344,-7.99453
74.05000,-12.34184,-7.99695
74.10001,-12.34997,-7.99883
74.15000,-12.35824,-7.99609
74.20001,-12.36677,-7.99950
74.25000,-12.37477,-8.00192
74.30000,-12.38304,-7.99806
74.35001,-12.39170,-8.00333
74.40000,-12.39984,-8.00494
74.45001,-12.40797,-8.00717
74.50000,-12.41650,-8.00426
74.55000,-12.42504,-8.01201
74.60001,-12.43330,-8.01199
74.65000,-12.44170,-8.01121
74.70001,-12.44997,-8.01836
74.75000,-12.45824,-8.01463
74.80000,-12.46677,-8.02199
74.85001,-12.47517,-8.02221
74.90000,-12.48357,-8.02533
74.95001,-12.49184,-8.02548
75.00000,-12.50010,-8.02927
75.05000,-12.50837,-8.02424
75.10001,-12.51690,-8.03187
75.15000,-12.52490,-8.02520
75.20001,-12.53317,-8.03408
75.25000,-12.54170,-8.02730
75.30000,-12.54997,-8.03509
75.35001,-12.55824,-8.02935
75.40000,-12.56690,-8.03847
75.45001,-12.57517,-8.03588
75.50000,-12.58330,-8.03861
75.55000,-12.59170,-8.03660
75.60001,-12.60024,-8.04137
75.65000,-12.60837,-8.03725
75.70001,-12.61677,-8.04361
75.75000,-12.62517,-8.03987
75.80000,-12.63344,-8.04840
75.85001,-12.64170,-8.03695
75.90000,-12.64997,-8.04668
75.95001,-12.65837,-8.03961
76.00000,-12.66677,-8.04666
76.05000,-12.67504,-8.04263
76.10001,-12.68317,-8.04414
76.15000,-12.69170,-8.04162
76.20001,-12.69997,-8.04688
76.25000,-12.70824,-8.04340
76.30000,-12.71677,-8.04608
76.35001,-12.72517,-8.04667
76.40000,-12.73330,-8.04861
76.45001,-12.74170,-8.04817
76.50000,-12.75024,-8.04836
76.55000,-12.75824,-8.05372
76.60001,-12.76650,-8.04788
76.65000,-12.77504,-8.05315
76.70001,-12.78317,-8.04985
76.75000,-12.79144,-8.05792
76.80000,-12.79984,-8.04708
76.85001,-12.80824,-8.06289
76.90000,-12.81650,-8.05099
76.95001,-12.82477,-8.06348
77.00000,-12.83317,-8.05407
77.05000,-12.84170,-8.06558
77.10001,-12.84997,-8.06218
77.15000,-12.85810,-8.06906
77.20001,-12.86663,-8.06091
77.25000,-12.87517,-8.07572
77.30000,-12.88317,-8.06785
77.35001,-12.89157,-8.07585
77.40000,-12.90010,-8.07378
77.45001,-12.90824,-8.08246
77.50000,-12.91650,-8.07714
77.55000,-12.92517,-8.08435
77.60001,-12.93330,-8.08815
77.65000,-12.94143,-8.08482
77.70001,-12.94984,-8.09202
77.75000,-12.95837,-8.09115
77.80000,-12.96663,-8.09937
77.85001,-12.97504,-8.09489
77.90000,-12.98343,-8.10658
77.95001,-12.99170,-8.10030
78.00000,-13.00010,-8.11036
78.05000,-13.00850,-8.10729
78.10001,-13.01690,-8.11457
78.15000,-13.02517,-8.11238
78.20001,-13.03330,-8.12066
78.25000,-13.04170,-8.11488
78.30000,-13.05010,-8.12379
78.35001,-13.05823,-8.12096
78.40000,-13.06650,-8.12708
78.45001,-13.07517,-8.12583
78.50000,-13.08330,-8.13363
78.55000,-13.09143,-8.13092
78.60001,-13.10010,-8.13814
78.65000,-13.10837,-8.13998
78.70001,-13.11650,-8.14219
78.75000,-13.12490,-8.14465
78.80000,-13.13357,-8.15077
78.85001,-13.14183,-8.15333
78.90000,-13.15023,-8.15596
78.95001,-13.15850,-8.16059
79.00000,-13.16677,-8.16238
79.05000,-13.17503,-8.16494
79.10001,-13.18343,-8.16844
79.15000,-13.19170,-8.17183
79.20001,-13.20010,-8.17483
79.25000,-13.20823,-8.17874
79.30000,-13.21650,-8.17910
79.35001,-13.22503,-8.18292
79.40000,-13.23317,-8.18684
79.45001,-13.24143,-8.18959
79.50000,-13.25010,-8.19190
79.55000,-13.25863,-8.19752
79.60001,-13.26650,-8.19857
79.65000,-13.27490,-8.20011
79.70001,-13.28357,-8.20212
79.75000,-13.29170,-8.20780
79.80000,-13.29983,-8.20774
79.85001,-13.30837,-8.21054
79.90000,-13.31663,-8.21132
79.95001,-13.32477,-8.21523
80.00000,-13.33317,-8.21524
80.05000,-13.34143,-8.21748
80.10001,-13.34970,-8.21796
80.15000,-13.35823,-8.22395
80.20001,-13.36650,-8.22499
80.25000,-13.37503,-8.22844
80.30000,-13.38343,-8.23207
80.35001,-13.39157,-8.23482
80.40000,-13.39997,-8.23521
80.45001,-13.40837,-8.24157
80.50001,-13.41650,-8.24457
80.55000,-13.42490,-8.24584
80.60001,-13.43357,-8.25042
80.65000,-13.44157,-8.25489
80.70001,-13.44983,-8.25513
80.75001,-13.45850,-8.25965
80.80000,-13.46663,-8.26516
80.85001,-13.47477,-8.26550
80.90000,-13.48317,-8.27033
80.95001,-13.49170,-8.27465
81.00001,-13.49983,-8.27927
81.05000,-13.50823,-8.28165
81.10001,-13.51677,-8.28875
81.15000,-13.52503,-8.29178
81.20001,-13.53343,-8.29701
81.25001,-13.54170,-8.30194
81.30000,-13.55010,-8.30398
81.35001,-13.55850,-8.30989
81.40000,-13.56663,-8.31458
81.45001,-13.57503,-8.31558
81.50001,-13.58357,-8.32231
81.55000,-13.59170,-8.32671
81.60001,-13.59983,-8.32829
81.65000,-13.60837,-8.33261
81.70001,-13.61663,-8.33964
81.75001,-13.62477,-8.34163
81.80000,-13.63343,-8.34984
81.85001,-13.64183,-8.35726
81.90000,-13.65010,-8.36287
81.95001,-13.65837,-8.36776
82.00001,-13.66703,-8.37510
82.05000,-13.67517,-8.37954
82.10001,-13.68343,-8.38574
82.15000,-13.69183,-8.39216
82.20001,-13.70023,-8.39671
82.25001,-13.70850,-8.40204
82.30000,-13.71677,-8.40891
82.35001,-13.72503,-8.41191
82.40000,-13.73330,-8.41897
82.45001,-13.74157,-8.42398
82.50001,-13.74983,-8.42816
82.55000,-13.75837,-8.43356
82.60001,-13.76663,-8.44213
82.65000,-13.77477,-8.44513
82.70001,-13.78330,-8.45033
82.75001,-13.79183,-8.45942
82.80000,-13.79997,-8.46447
82.85001,-13.80837,-8.47043
82.90000,-13.81703,-8.47719
82.95001,-13.82503,-8.48660
83.00001,-13.83330,-8.48785
83.05000,-13.84170,-8.49830
83.10001,-13.84997,-8.50127
83.15000,-13.85810,-8.50967
83.20001,-13.86650,-8.51342
83.25001,-13.87477,-8.52268
83.30000,-13.88303,-8.52770
83.35001,-13.89143,-8.53576
83.40000,-13.89970,-8.54058
83.45001,-13.90823,-8.55136
83.50001,-13.91677,-8.55858
83.55000,-13.92490,-8.56830
83.60001,-13.93343,-8.57066
83.65000,-13.94183,-8.58373
83.70001,-13.94983,-8.58856
83.75001,-13.95823,-8.59496
83.80000,-13.96690,-8.60530
83.85001,-13.97490,-8.61317
83.90000,-13.98317,-8.61986
83.95001,-13.99170,-8.62563
84.00001,-13.99997,-8.63544
84.05000,-14.00810,-8.63690
84.10001,-14.01663,-8.64696
84.15000,-14.02503,-8.65226
84.20001,-14.03330,-8.66285
84.25001,-14.04170,-8.66678
84.30000,-14.05010,-8.67968
84.35001,-14.05837,-8.68274
84.40000,-14.06677,-8.69469
84.45001,-14.07503,-8.69969
84.50001,-14.08357,-8.71123
84.55000,-14.09183,-8.71710
84.60001,-14.09997,-8.72900
84.65000,-14.10823,-8.73059
84.70001,-14.11677,-8.74588
84.75001,-14.12503,-8.75254
84.80000,-14.13317,-8.76192
84.85001,-14.14183,-8.76936
84.90000,-14.14997,-8.78006
84.95001,-14.15810,-8.78836
85.00001,-14.16677,-8.79876
85.05000,-14.17530,-8.81013
85.10001,-14.18330,-8.81915
85.15000,-14.19170,-8.82846
85.20001,-14.20023,-8.83996
85.25001,-14.20837,-8.84767
85.30000,-14.21676,-8.85636
85.35001,-14.22517,-8.86726
85.40000,-14.23330,-8.87560
85.45001,-14.24157,-8.88070
85.50001,-14.24983,-8.89713
85.55000,-14.25823,-8.90168
85.60001,-14.26663,-8.91668
85.65000,-14.27476,-8.92410
85.70001,-14.28303,-8.93600
85.75001,-14.29170,-8.94709
85.80000,-14.29997,-8.96224
85.85001,-14.30823,-8.96874
85.90000,-14.31676,-8.98349
85.95001,-14.32530,-8.99592
86.00001,-14.33330,-9.00732
86.05000,-14.34170,-9.01574
86.10001,-14.35036,-9.03047
86.15000,-14.35836,-9.03947
86.20001,-14.36663,-9.05173
86.25001,-14.37503,-9.05713
86.30000,-14.38330,-9.07426
86.35001,-14.39143,-9.08163
86.40000,-14.39983,-9.09409
86.45001,-14.40810,-9.10416
86.50001,-14.41650,-9.11446
86.55000,-14.42476,-9.12888
86.60001,-14.43303,-9.13934
86.65000,-14.44156,-9.14891
86.70001,-14.44996,-9.16885
86.75001,-14.45810,-9.17575
86.80000,-14.46676,-9.18930
86.85001,-14.47530,-9.20195
86.90000,-14.48330,-9.21651
86.95001,-14.49156,-9.22440
87.00001,-14.50010,-9.23652
87.05000,-14.50823,-9.25036
87.10001,-14.51650,-9.26170
87.15000,-14.52503,-9.27139
87.20001,-14.53330,-9.28644
87.25001,-14.54143,-9.29569
87.30000,-14.54983,-9.30956
87.35001,-14.55836,-9.31922
87.40000,-14.56650,-9.33548
87.45001,-14.57490,-9.34311
87.50001,-14.58330,-9.36238
87.55000,-14.59183,-9.36963
87.60001,-14.60010,-9.39001
87.65000,-14.60836,-9.39497
87.70001,-14.61676,-9.41451
87.75001,-14.62516,-9.41943
87.80000,-14.63330,-9.44232
87.85001,-14.64156,-9.43976
87.90000,-14.65010,-9.46341
87.95001,-14.65836,-9.46825
88.00001,-14.66650,-9.48679
88.05000,-14.67503,-9.49072
88.10001,-14.68330,-9.51321
88.15000,-14.69143,-9.51390
88.20001,-14.69996,-9.53489
88.25001,-14.70850,-9.54289
88.30000,-14.71663,-9.56079
88.35001,-14.72503,-9.56343
88.40000,-14.73356,-9.58615
88.45001,-14.74183,-9.59049
88.50001,-14.75010,-9.60704
88.55000,-14.75850,-9.61490
88.60001,-14.76690,-9.63014
88.65000,-14.77503,-9.63688
88.70001,-14.78330,-9.65208
88.75001,-14.79170,-9.65810
88.80000,-14.80010,-9.67336
88.85001,-14.80823,-9.68480
88.90000,-14.81650,-9.69026
88.95001,-14.82503,-9.70507
89.00001,-14.83343,-9.71832
89.05000,-14.84156,-9.73051
89.10001,-14.85010,-9.73957
89.15000,-14.85863,-9.75505
89.20001,-14.86663,-9.76661
89.25001,-14.87503,-9.77612
89.30000,-14.88370,-9.79219
89.35001,-14.89170,-9.80499
89.40000,-14.89996,-9.81790
89.45001,-14.90836,-9.82608
89.50001,-14.91663,-9.84170
89.55000,-14.92490,-9.85265
89.60001,-14.93316,-9.86625
89.65000,-14.94156,-9.87626
89.70001,-14.94983,-9.89195
89.75001,-14.95823,-9.90206
89.80000,-14.96636,-9.91756
89.85001,-14.97503,-9.92514
89.90000,-14.98343,-9.94615
89.95001,-14.99156,-9.95241
90.00001,-15.00010,-9.96546
90.05000,-15.00850,-9.97721
90.06800,-15.01143,-9.98278
