Time,Extension,Load
(sec),(mm),(N)
0.00000,0.50613,0.03304
0.05000,0.50520,0.03088
0.10000,0.49747,0.03161
0.15000,0.48733,0.03286
0.20000,0.47733,0.03174
0.25000,0.46787,0.03296
0.30000,0.45867,0.03167
0.35000,0.44973,0.03118
0.40000,0.44093,0.03326
0.45000,0.43227,0.03059
0.50000,0.42373,0.03354
0.55000,0.41507,0.03233
0.60000,0.40667,0.03110
0.65000,0.39840,0.03205
0.70000,0.38973,0.03195
0.75000,0.38133,0.03131
0.80000,0.37320,0.03372
0.85000,0.36480,0.03115
0.90000,0.35627,0.03203
0.95000,0.34813,0.03203
1.00000,0.33987,0.03242
1.05000,0.33133,0.03081
1.10000,0.32320,0.03266
1.15000,0.31493,0.03088
1.20000,0.30653,0.03313
1.25000,0.29813,0.02964
1.30000,0.28973,0.03318
1.35000,0.28133,0.03066
1.40000,0.27307,0.03355
1.45000,0.26453,0.03030
1.50000,0.25627,0.03454
1.55000,0.24813,0.02989
1.60000,0.23947,0.03457
1.65000,0.23120,0.02969
1.70000,0.22320,0.03465
1.75000,0.21480,0.02988
1.80000,0.20613,0.03550
1.85000,0.19813,0.02773
1.90000,0.18987,0.03339
1.95000,0.18120,0.02551
2.00000,0.17293,0.02899
2.05000,0.16467,0.02159
2.10000,0.15600,0.02656
2.15000,0.14773,0.01872
2.20000,0.13960,0.02183
2.25000,0.13120,0.01482
2.30000,0.12293,0.01921
2.35000,0.11453,0.01200
2.40000,0.10627,0.01422
2.45000,0.09813,0.00741
2.50000,0.08947,0.01141
2.55000,0.08120,0.00367
2.60000,0.07320,0.00859
2.65000,0.06467,-0.00124
2.70000,0.05627,0.00250
2.75000,0.04827,-0.00416
2.80000,0.03987,-0.00124
2.85000,0.03107,-0.01054
2.90000,0.02293,-0.00625
2.95000,0.01467,-0.01485
3.00000,0.00613,-0.01158
3.05000,-0.00213,-0.02071
3.10000,-0.01040,-0.01512
3.15000,-0.01880,-0.02850
3.20000,-0.02707,-0.02131
3.25000,-0.03520,-0.03267
3.30000,-0.04347,-0.02735
3.35000,-0.05187,-0.03905
3.40000,-0.06040,-0.03362
3.45000,-0.06867,-0.04288
3.50000,-0.07680,-0.04009
3.55000,-0.08533,-0.04893
3.60000,-0.09387,-0.04588
3.65000,-0.10200,-0.05322
3.70000,-0.11040,-0.05301
3.75000,-0.11893,-0.05746
3.80000,-0.12720,-0.05874
3.85000,-0.13520,-0.06323
3.90000,-0.14387,-0.06342
3.95000,-0.15227,-0.06969
4.00000,-0.16040,-0.06918
4.05000,-0.16867,-0.07415
4.10000,-0.17720,-0.07490
4.15000,-0.18533,-0.07927
4.20000,-0.19347,-0.07994
4.25000,-0.20200,-0.07803
4.30000,-0.21027,-0.10248
4.35000,-0.21853,-0.07375
4.40000,-0.22693,-0.10178
4.45000,-0.23533,-0.08906
4.50000,-0.24373,-0.10042
4.55000,-0.25213,-0.09916
4.60000,-0.26040,-0.10486
4.65000,-0.26880,-0.10463
4.70000,-0.27720,-0.10930
4.75000,-0.28533,-0.11203
4.80000,-0.29373,-0.11346
4.85000,-0.30213,-0.11757
4.90000,-0.31013,-0.12199
4.95000,-0.31853,-0.11740
5.00000,-0.32720,-0.13251
5.05000,-0.33520,-0.12280
5.10000,-0.34333,-0.13523
5.15000,-0.35200,-0.13284
5.20000,-0.36027,-0.13733
5.25000,-0.36853,-0.14131
5.30000,-0.37707,-0.14369
5.35000,-0.38547,-0.14497
5.40000,-0.39373,-0.15164
5.45000,-0.40213,-0.15206
5.50000,-0.41040,-0.15756
5.55000,-0.41893,-0.15674
5.60000,-0.42720,-0.16663
5.65000,-0.43520,-0.16287
5.70000,-0.44373,-0.17503
5.75000,-0.45213,-0.16830
5.80000,-0.46013,-0.18222
5.85000,-0.46853,-0.17726
5.90000,-0.47707,-0.18643
5.95000,-0.48520,-0.18701
6.00000,-0.49360,-0.19310
6.05000,-0.50227,-0.19409
6.10000,-0.51040,-0.20058
6.15000,-0.51867,-0.20102
6.20000,-0.52720,-0.20702
6.25000,-0.53547,-0.20944
6.30000,-0.54373,-0.21272
6.35000,-0.55227,-0.21730
6.40000,-0.56053,-0.21980
6.45000,-0.56880,-0.22352
6.50000,-0.57707,-0.22757
6.55000,-0.58533,-0.22985
6.60000,-0.59373,-0.23445
6.65000,-0.60213,-0.23821
6.70000,-0.61027,-0.23881
6.75000,-0.61867,-0.24741
6.80000,-0.62707,-0.24596
6.85000,-0.63533,-0.25372
6.90000,-0.64373,-0.25376
6.95000,-0.65227,-0.26125
7.00000,-0.66053,-0.26205
7.05000,-0.66867,-0.26640
7.10000,-0.67706,-0.27013
7.15000,-0.68546,-0.27481
7.20000,-0.69360,-0.27677
7.25000,-0.70186,-0.28166
7.30000,-0.71040,-0.28617
7.35000,-0.71853,-0.28965
7.40000,-0.72680,-0.29305
7.45000,-0.73533,-0.29829
7.50000,-0.74360,-0.30013
7.55000,-0.75186,-0.30607
7.60000,-0.76040,-0.31056
7.65000,-0.76866,-0.31414
7.70000,-0.77706,-0.31796
7.75000,-0.78533,-0.32280
7.80000,-0.79360,-0.32512
7.85000,-0.80213,-0.33377
7.90000,-0.81053,-0.33180
7.95000,-0.81866,-0.34257
8.00000,-0.82706,-0.34119
8.05000,-0.83546,-0.35071
8.10000,-0.84346,-0.34865
8.15000,-0.85186,-0.35791
8.20000,-0.86040,-0.35874
8.25000,-0.86853,-0.36751
8.30000,-0.87666,-0.36647
8.35000,-0.88533,-0.37641
8.40000,-0.89373,-0.37666
8.45000,-0.90186,-0.38547
8.50000,-0.91040,-0.38471
8.55000,-0.91880,-0.39532
8.60000,-0.92693,-0.39400
8.65000,-0.93546,-0.40426
8.70000,-0.94373,-0.40348
8.75000,-0.95213,-0.41318
8.80000,-0.96053,-0.41409
8.85000,-0.96853,-0.42165
8.90000,-0.97720,-0.42479
8.95000,-0.98560,-0.43045
9.00000,-0.99346,-0.43387
9.05000,-1.00200,-0.44002
9.10000,-1.01040,-0.44380
9.15000,-1.01840,-0.44982
9.20000,-1.02693,-0.45505
9.25000,-1.03560,-0.46045
9.30000,-1.04386,-0.46594
9.35000,-1.05200,-0.46979
9.40000,-1.06066,-0.47680
9.45000,-1.06880,-0.48069
9.50000,-1.07706,-0.48682
9.55000,-1.08546,-0.49082
9.60000,-1.09386,-0.49849
9.65000,-1.10213,-0.50161
9.70000,-1.11040,-0.50886
9.75000,-1.11866,-0.51308
9.80000,-1.12706,-0.51963
9.85000,-1.13520,-0.52350
9.90000,-1.14346,-0.53040
9.95000,-1.15186,-0.53679
10.00000,-1.16040,-0.54133
10.05000,-1.16866,-0.54753
10.10000,-1.17693,-0.55321
10.15000,-1.18546,-0.55945
10.20000,-1.19373,-0.56497
10.25000,-1.20186,-0.57029
10.30000,-1.21040,-0.57719
10.35000,-1.21893,-0.58271
10.40000,-1.22693,-0.58886
10.45000,-1.23520,-0.59365
10.50000,-1.24373,-0.60050
10.55000,-1.25200,-0.60403
10.60000,-1.26013,-0.60849
10.65000,-1.26866,-0.61179
10.70000,-1.27693,-0.61503
10.75000,-1.28520,-0.61687
10.80000,-1.29360,-0.62442
10.85000,-1.30200,-0.62791
10.90000,-1.31040,-0.63739
10.95000,-1.31880,-0.64267
11.00000,-1.32706,-0.65509
11.05000,-1.33546,-0.65765
11.10000,-1.34386,-0.67198
11.15000,-1.35186,-0.67370
11.20000,-1.36026,-0.68786
11.25000,-1.36880,-0.68959
11.30000,-1.37680,-0.70609
11.35000,-1.38533,-0.70544
11.40000,-1.39386,-0.72383
11.45000,-1.40200,-0.71989
11.50000,-1.41013,-0.73801
11.55000,-1.41893,-0.73976
11.60000,-1.42706,-0.75490
11.65000,-1.43520,-0.75436
11.70000,-1.44373,-0.77064
11.75000,-1.45213,-0.77028
11.80000,-1.46040,-0.78879
11.85000,-1.46880,-0.78842
11.90000,-1.47706,-0.80451
11.95000,-1.48560,-0.80545
12.00000,-1.49373,-0.82209
12.05000,-1.50186,-0.82289
12.10000,-1.51053,-0.83779
12.15000,-1.51880,-0.84158
12.20000,-1.52680,-0.85701
12.25000,-1.53520,-0.85902
12.30000,-1.54373,-0.87417
12.35000,-1.55173,-0.87956
12.40000,-1.56013,-0.89121
12.45000,-1.56880,-0.89800
12.50000,-1.57693,-0.91242
12.55000,-1.58520,-0.91640
12.60000,-1.59386,-0.93147
12.65000,-1.60213,-0.93741
12.70000,-1.61026,-0.95076
12.75000,-1.61880,-0.95801
12.80000,-1.62720,-0.96832
12.85000,-1.63546,-0.97770
12.90000,-1.64373,-0.98981
12.95000,-1.65213,-0.99782
13.00000,-1.66053,-1.00776
13.05000,-1.66866,-1.01853
13.10000,-1.67680,-1.02889
13.15000,-1.68520,-1.03813
13.20000,-1.69373,-1.04855
13.25000,-1.70186,-1.06173
13.30000,-1.71040,-1.07115
13.35000,-1.71893,-1.08322
13.40000,-1.72720,-1.09411
13.45000,-1.73533,-1.10221
13.50000,-1.74373,-1.11861
13.55000,-1.75226,-1.12552
13.60000,-1.76040,-1.14002
13.65000,-1.76866,-1.14868
13.70000,-1.77706,-1.16187
13.75000,-1.78533,-1.17202
13.80000,-1.79360,-1.18573
13.85000,-1.80200,-1.19494
13.90000,-1.81026,-1.20809
13.95000,-1.81853,-1.21749
14.00000,-1.82693,-1.23324
14.05000,-1.83533,-1.24007
14.10000,-1.84373,-1.25691
14.15000,-1.85200,-1.26414
14.20000,-1.86026,-1.28006
14.25000,-1.86880,-1.28880
14.30000,-1.87706,-1.30345
14.35000,-1.88520,-1.31211
14.40000,-1.89373,-1.32637
14.45000,-1.90213,-1.33758
14.50000,-1.91013,-1.35022
14.55000,-1.91866,-1.36024
14.60000,-1.92720,-1.37488
14.65000,-1.93520,-1.38537
14.70000,-1.94346,-1.39749
14.75000,-1.95200,-1.40908
14.80000,-1.96026,-1.42251
14.85000,-1.96853,-1.43418
14.90000,-1.97706,-1.44612
14.95000,-1.98546,-1.46033
15.00000,-1.99386,-1.47084
15.05000,-2.00213,-1.48414
15.10000,-2.01053,-1.49650
15.15000,-2.01893,-1.50867
15.20000,-2.02720,-1.52201
15.25000,-2.03533,-1.53283
15.30000,-2.04386,-1.54573
15.35000,-2.05226,-1.55873
15.40000,-2.06026,-1.57044
15.45000,-2.06866,-1.58152
15.50000,-2.07719,-1.59583
15.55000,-2.08533,-1.60708
15.60000,-2.09359,-1.61991
15.65000,-2.10226,-1.63185
15.70000,-2.11026,-1.64677
15.75000,-2.11866,-1.65425
15.80000,-2.12719,-1.67319
15.85000,-2.13546,-1.67998
15.90000,-2.14386,-1.69741
15.95000,-2.15226,-1.70680
16.00000,-2.16053,-1.72186
16.05000,-2.16866,-1.73074
16.10000,-2.17693,-1.74654
16.15000,-2.18519,-1.75620
16.20000,-2.19359,-1.77150
16.25000,-2.20186,-1.78282
16.30000,-2.20999,-1.79410
16.35000,-2.21853,-1.81045
16.40000,-2.22706,-1.81804
16.45000,-2.23519,-1.83503
16.50000,-2.24373,-1.84389
16.55000,-2.25226,-1.85884
16.60000,-2.26053,-1.84425
16.65000,-2.26866,-1.68297
16.70000,-2.27719,-1.70064
16.75000,-2.28559,-1.73910
16.80000,-2.29359,-1.75451
16.85000,-2.30186,-1.77694
16.90000,-2.31039,-1.79881
16.95000,-2.31866,-1.81262
17.00000,-2.32693,-1.83397
17.05000,-2.33533,-1.84865
17.10000,-2.34359,-1.86662
17.15000,-2.35173,-1.87949
17.20000,-2.36026,-1.90069
17.25000,-2.36879,-1.90980
17.30000,-2.37706,-1.93268
17.35000,-2.38546,-1.94145
17.40000,-2.39373,-1.95964
17.45000,-2.40213,-1.97462
17.50000,-2.41053,-1.98555
17.55000,-2.41866,-2.00310
17.60000,-2.42719,-2.01267
17.65000,-2.43546,-2.03137
17.70000,-2.44346,-2.03937
17.75000,-2.45186,-2.05764
17.80000,-2.46039,-2.06601
17.85000,-2.46839,-2.07360
17.90000,-2.47679,-2.07415
17.95000,-2.48546,-2.07442
18.00000,-2.49359,-2.07932
18.05000,-2.50186,-2.07370
18.10000,-2.51039,-2.08519
18.15000,-2.51879,-2.08694
18.20000,-2.52706,-2.10924
18.25000,-2.53559,-2.11390
18.30000,-2.54386,-2.13264
18.35000,-2.55213,-2.13652
18.40000,-2.56053,-2.15142
18.45000,-2.56853,-2.15229
18.50000,-2.57706,-2.17368
18.55000,-2.58546,-2.16484
18.60000,-2.59346,-2.20663
18.65000,-2.60186,-2.18296
18.70000,-2.61039,-2.22801
18.75000,-2.61839,-2.22054
18.80000,-2.62679,-2.24552
18.85000,-2.63546,-2.25055
18.90000,-2.64373,-2.27073
18.95000,-2.65199,-2.27517
19.00000,-2.66066,-2.29258
19.05000,-2.66893,-2.29969
19.10000,-2.67706,-2.31249
19.15000,-2.68533,-2.32267
19.20000,-2.69373,-2.33366
19.25000,-2.70199,-2.34727
19.30000,-2.71039,-2.35280
19.35000,-2.71866,-2.37102
19.40000,-2.72706,-2.37326
19.45000,-2.73546,-2.39601
19.50000,-2.74359,-2.39609
19.55000,-2.75213,-2.41756
19.60000,-2.76053,-2.42148
19.65000,-2.76866,-2.44470
19.70000,-2.77706,-2.44587
19.75000,-2.78559,-2.46891
19.80000,-2.79373,-2.47002
19.85000,-2.80199,-2.49610
19.90000,-2.81053,-2.49599
19.95000,-2.81893,-2.52422
20.00000,-2.82693,-2.52462
20.05000,-2.83519,-2.54786
20.10000,-2.84373,-2.55340
20.15000,-2.85186,-2.57607
20.20000,-2.86013,-2.57849
20.25000,-2.86866,-2.60294
20.30000,-2.87693,-2.60774
20.35000,-2.88506,-2.62752
20.40000,-2.89359,-2.63405
20.45000,-2.90199,-2.65560
20.50000,-2.91039,-2.66129
20.55000,-2.91879,-2.68152
20.60000,-2.92706,-2.68758
20.65000,-2.93559,-2.70663
20.70000,-2.94373,-2.71383
20.75000,-2.95186,-2.73200
20.80000,-2.96053,-2.74099
20.85000,-2.96879,-2.75346
20.90000,-2.97679,-2.76716
20.95000,-2.98533,-2.77953
21.00000,-2.99386,-2.79155
21.05000,-3.00186,-2.80519
21.10000,-3.01013,-2.81675
21.15000,-3.01866,-2.82984
21.20000,-3.02693,-2.84283
21.25000,-3.03519,-2.85396
21.30000,-3.04373,-2.87042
21.35000,-3.05213,-2.87904
21.40000,-3.06039,-2.89318
21.45000,-3.06866,-2.90767
21.50000,-3.07706,-2.91673
21.55000,-3.08533,-2.93154
21.60000,-3.09373,-2.94215
21.65000,-3.10186,-2.95640
21.70000,-3.11039,-2.96706
21.75000,-3.11879,-2.98106
21.80000,-3.12693,-2.99280
21.85000,-3.13533,-3.00602
21.90000,-3.14373,-3.01662
21.95000,-3.15186,-3.03168
22.00000,-3.16026,-3.03927
22.05000,-3.16879,-3.05744
22.10000,-3.17693,-3.06597
22.15000,-3.18519,-3.08098
22.20000,-3.19386,-3.09072
22.25000,-3.20213,-3.10644
22.30000,-3.21039,-3.11637
22.35000,-3.21879,-3.12907
22.40000,-3.22719,-3.14131
22.45000,-3.23533,-3.15332
22.50000,-3.24373,-3.16493
22.55000,-3.25213,-3.17714
22.60000,-3.26039,-3.18908
22.65000,-3.26866,-3.20235
22.70000,-3.27679,-3.21287
22.75000,-3.28533,-3.22571
22.80000,-3.29386,-3.23806
22.85000,-3.30199,-3.25013
22.90000,-3.31026,-3.25975
22.95000,-3.31893,-3.27310
23.00000,-3.32719,-3.28570
23.05000,-3.33533,-3.29425
23.10000,-3.34373,-3.30863
23.15000,-3.35213,-3.31831
23.20000,-3.36026,-3.33071
23.25000,-3.36866,-3.34133
23.30000,-3.37719,-3.35420
23.35000,-3.38532,-3.36526
23.40000,-3.39359,-3.37773
23.45000,-3.40199,-3.38813
23.50000,-3.41026,-3.39920
23.55000,-3.41852,-3.41137
23.60000,-3.42693,-3.42301
23.65000,-3.43546,-3.43481
23.70000,-3.44372,-3.44755
23.75000,-3.45213,-3.46061
23.80000,-3.46039,-3.47090
23.85000,-3.46892,-3.48395
23.90000,-3.47706,-3.49528
23.95000,-3.48532,-3.50894
24.00000,-3.49386,-3.51788
24.05000,-3.50226,-3.53254
24.10000,-3.51012,-3.54174
24.15000,-3.51852,-3.55508
24.20000,-3.52706,-3.56661
24.25000,-3.53506,-3.58033
24.30000,-3.54332,-3.59036
24.35000,-3.55199,-3.60366
24.40000,-3.56012,-3.61330
24.45000,-3.56839,-3.62756
24.50000,-3.57706,-3.63830
24.55000,-3.58532,-3.65141
24.60000,-3.59372,-3.66210
24.65000,-3.60212,-3.67689
24.70000,-3.61039,-3.68346
24.75000,-3.61879,-3.69871
24.80000,-3.62719,-3.70650
24.85000,-3.63532,-3.72108
24.90000,-3.64386,-3.72931
24.95000,-3.65212,-3.74499
25.00000,-3.66012,-3.75298
25.05000,-3.66866,-3.76572
25.10000,-3.67706,-3.77580
25.15000,-3.68519,-3.78943
25.20000,-3.69359,-3.79886
25.25000,-3.70226,-3.80677
25.30000,-3.71039,-3.82844
25.35000,-3.71866,-3.82544
25.40000,-3.72719,-3.84822
25.45000,-3.73546,-3.85245
25.50000,-3.74359,-3.86892
25.55000,-3.75212,-3.87188
25.60000,-3.76052,-3.89234
25.65000,-3.76879,-3.89188
25.70000,-3.77706,-3.91362
25.75000,-3.78532,-3.90885
25.80000,-3.79372,-3.93870
25.85000,-3.80199,-3.92595
25.90000,-3.81012,-3.96189
25.95000,-3.81866,-3.94621
26.00000,-3.82719,-3.97941
26.05000,-3.83532,-3.97494
26.10000,-3.84372,-3.99474
26.15000,-3.85226,-3.99654
26.20000,-3.86052,-4.01527
26.25000,-3.86866,-4.01784
26.30000,-3.87719,-4.03445
26.35000,-3.88546,-4.03943
26.40000,-3.89359,-4.05113
26.45000,-3.90199,-4.06420
26.50000,-3.91052,-4.06760
26.55000,-3.91866,-4.08460
26.60000,-3.92679,-4.08894
26.65000,-3.93532,-4.10230
26.70000,-3.94346,-4.10619
26.75000,-3.95186,-4.12366
26.80000,-3.96026,-4.12586
26.85000,-3.96866,-4.14332
26.90000,-3.97706,-4.14665
26.95000,-3.98532,-4.16060
27.00000,-3.99372,-4.16985
27.05000,-4.00212,-4.17899
27.10000,-4.01039,-4.18817
27.15000,-4.01852,-4.19860
27.20000,-4.02719,-4.20790
27.25000,-4.03546,-4.21544
27.30000,-4.04346,-4.22849
27.35000,-4.05199,-4.23218
27.40000,-4.06052,-4.24968
27.45000,-4.06839,-4.24826
27.50000,-4.07679,-4.26804
27.55000,-4.08532,-4.26574
27.60000,-4.09359,-4.28920
27.65000,-4.10186,-4.28258
27.70000,-4.11039,-4.30670
27.75000,-4.11879,-4.30324
27.80000,-4.12706,-4.32148
27.85000,-4.13546,-4.32234
27.90000,-4.14372,-4.33922
27.95000,-4.15212,-4.33839
28.00000,-4.16052,-4.35840
28.05000,-4.16852,-4.35487
28.10000,-4.17706,-4.37621
28.15000,-4.18546,-4.37283
28.20000,-4.19346,-4.39080
28.25000,-4.20199,-4.38884
28.30000,-4.21039,-4.40678
28.35000,-4.21852,-4.40667
28.40000,-4.22692,-4.42124
28.45000,-4.23559,-4.42447
28.50000,-4.24372,-4.43945
28.55000,-4.25199,-4.43952
28.60000,-4.26052,-4.45395
28.65000,-4.26879,-4.45676
28.70000,-4.27706,-4.46875
28.75000,-4.28546,-4.47204
28.80000,-4.29386,-4.48331
28.85000,-4.30212,-4.48669
28.90000,-4.31039,-4.49652
28.95000,-4.31866,-4.49980
29.00000,-4.32719,-4.50944
29.05000,-4.33532,-4.51324
29.10000,-4.34359,-4.52258
29.15000,-4.35212,-4.52551
29.20000,-4.36039,-4.53662
29.25000,-4.36866,-4.54028
29.30000,-4.37706,-4.54893
29.35000,-4.38559,-4.55321
29.40000,-4.39386,-4.56504
29.45000,-4.40199,-4.56565
29.50000,-4.41052,-4.57590
29.55000,-4.41892,-4.58187
29.60000,-4.42706,-4.58929
29.65000,-4.43532,-4.59367
29.70000,-4.44372,-4.60252
29.75000,-4.45186,-4.60707
29.80000,-4.46012,-4.61504
29.85000,-4.46866,-4.61883
29.90000,-4.47692,-4.62848
29.95000,-4.48506,-4.63276
30.00000,-4.49359,-4.64203
30.05000,-4.50212,-4.64677
30.10000,-4.51039,-4.65494
30.15000,-4.51879,-4.66201
30.20000,-4.52706,-4.66734
30.25000,-4.53559,-4.67333
30.30000,-4.54372,-4.68129
30.35000,-4.55199,-4.68587
30.40000,-4.56052,-4.69261
30.45000,-4.56879,-4.69941
30.50000,-4.57679,-4.70535
30.55000,-4.58532,-4.71108
30.60000,-4.59386,-4.71750
30.65000,-4.60172,-4.72398
30.70000,-4.60999,-4.72833
30.75000,-4.61866,-4.73665
30.80000,-4.62692,-4.74214
30.85000,-4.63519,-4.74938
30.90000,-4.64372,-4.75594
30.95000,-4.65212,-4.76143
31.00000,-4.66026,-4.76750
31.05000,-4.66879,-4.77485
31.10000,-4.67692,-4.77934
31.15000,-4.68532,-4.78633
31.20000,-4.69372,-4.79102
31.25000,-4.70186,-4.79937
31.30000,-4.71052,-4.80337
31.35000,-4.71879,-4.81008
31.40000,-4.72679,-4.81697
31.45000,-4.73519,-4.81934
31.50000,-4.74372,-4.82871
31.55000,-4.75186,-4.83154
31.60000,-4.76026,-4.83951
31.65000,-4.76906,-4.84314
31.70000,-4.77706,-4.85178
31.75000,-4.78532,-4.85403
31.80000,-4.79399,-4.86090
31.85000,-4.80212,-4.86591
31.90000,-4.81039,-4.87199
31.95000,-4.81879,-4.87527
32.00000,-4.82719,-4.88324
32.05000,-4.83532,-4.88527
32.10000,-4.84372,-4.89236
32.15000,-4.85199,-4.89546
32.20000,-4.86039,-4.90205
32.25000,-4.86865,-4.90576
32.30000,-4.87679,-4.91165
32.35000,-4.88532,-4.91422
32.40000,-4.89385,-4.92186
32.45000,-4.90199,-4.92507
32.50000,-4.91039,-4.93029
32.55000,-4.91892,-4.93385
32.60000,-4.92705,-4.94035
32.65000,-4.93532,-4.94264
32.70000,-4.94372,-4.94753
32.75000,-4.95212,-4.95123
32.80000,-4.96025,-4.95617
32.85000,-4.96852,-4.95823
32.90000,-4.97705,-4.96360
32.95000,-4.98532,-4.96724
33.00000,-4.99345,-4.97148
33.05000,-5.00199,-4.97479
33.10000,-5.01012,-4.97904
33.15000,-5.01852,-4.98370
33.20000,-5.02692,-4.98759
33.25000,-5.03532,-4.99277
33.30000,-5.04372,-4.99673
33.35000,-5.05199,-5.00186
33.40000,-5.06039,-5.00503
33.45000,-5.06879,-5.00974
33.50000,-5.07705,-5.01479
33.55000,-5.08519,-5.01736
33.60000,-5.09372,-5.02219
33.65000,-5.10212,-5.02698
33.70000,-5.11012,-5.02840
33.75000,-5.11852,-5.03270
33.80000,-5.12705,-5.03585
33.85000,-5.13519,-5.03966
33.90000,-5.14345,-5.04195
33.95000,-5.15212,-5.04688
34.00000,-5.16025,-5.05169
34.05000,-5.16865,-5.05468
34.10000,-5.17719,-5.05938
34.15000,-5.18545,-5.06420
34.20000,-5.19372,-5.06742
34.25000,-5.20212,-5.07200
34.30000,-5.21039,-5.07560
34.35000,-5.21892,-5.08046
34.40000,-5.22719,-5.08446
34.45000,-5.23519,-5.08738
34.50000,-5.24372,-5.09076
34.55000,-5.25199,-5.09520
34.60000,-5.26012,-5.09855
34.65000,-5.26852,-5.10131
34.70000,-5.27705,-5.10709
34.75000,-5.28519,-5.11072
34.80000,-5.29359,-5.11385
34.85000,-5.30225,-5.11910
34.90000,-5.31039,-5.12442
34.95000,-5.31865,-5.12620
35.00000,-5.32719,-5.13036
35.05000,-5.33545,-5.13549
35.10000,-5.34359,-5.13756
35.15000,-5.35212,-5.14148
35.20000,-5.36052,-5.14522
35.25000,-5.36879,-5.15003
35.30000,-5.37705,-5.15321
35.35000,-5.38545,-5.15773
35.40000,-5.39372,-5.16061
35.45000,-5.40199,-5.16435
35.50000,-5.41012,-5.16757
35.55000,-5.41865,-5.16968
35.60000,-5.42719,-5.17505
35.65000,-5.43532,-5.17843
35.70000,-5.44359,-5.18193
35.75000,-5.45212,-5.18444
35.80000,-5.46052,-5.19097
35.85000,-5.46865,-5.19184
35.90000,-5.47705,-5.19569
35.95000,-5.48559,-5.19986
36.00000,-5.49372,-5.20211
36.05000,-5.50199,-5.20593
36.10000,-5.51052,-5.20834
36.15000,-5.51865,-5.21160
36.20000,-5.52679,-5.21422
36.25000,-5.53532,-5.21787
36.30000,-5.54359,-5.22083
36.35000,-5.55185,-5.22166
36.40000,-5.56025,-5.22949
36.45000,-5.56865,-5.22721
36.50000,-5.57705,-5.23544
36.55000,-5.58532,-5.23653
36.60000,-5.59359,-5.23872
36.65000,-5.60212,-5.24284
36.70000,-5.61039,-5.24751
36.75000,-5.61865,-5.24892
36.80000,-5.62719,-5.25394
36.85000,-5.63545,-5.25537
36.90000,-5.64345,-5.25840
36.95000,-5.65185,-5.26018
37.00000,-5.66052,-5.26547
37.05000,-5.66852,-5.26665
37.10000,-5.67679,-5.27074
37.15000,-5.68545,-5.27349
37.20000,-5.69359,-5.27820
37.25000,-5.70185,-5.28031
37.30000,-5.71025,-5.28353
37.35000,-5.71865,-5.28850
37.40000,-5.72692,-5.28946
37.45000,-5.73532,-5.29490
37.50000,-5.74359,-5.29487
37.55000,-5.75199,-5.30062
37.60000,-5.76025,-5.30055
37.65000,-5.76839,-5.30572
37.70000,-5.77705,-5.30571
37.75000,-5.78532,-5.31084
37.80000,-5.79345,-5.31168
37.85000,-5.80199,-5.31581
37.90000,-5.81039,-5.31692
37.95000,-5.81852,-5.32204
38.00000,-5.82692,-5.32090
38.05000,-5.83559,-5.32755
38.10000,-5.84372,-5.32836
38.15000,-5.85199,-5.33217
38.20000,-5.86065,-5.33384
38.25000,-5.86879,-5.33708
38.30000,-5.87705,-5.33926
38.35000,-5.88559,-5.34210
38.40000,-5.89385,-5.34443
38.45000,-5.90212,-5.34616
38.50000,-5.91039,-5.34852
38.55000,-5.91865,-5.35156
38.60000,-5.92705,-5.35330
38.65000,-5.93532,-5.35531
38.70000,-5.94345,-5.35911
38.75000,-5.95199,-5.36013
38.80000,-5.96039,-5.36312
38.85000,-5.96852,-5.36571
38.90000,-5.97692,-5.36834
38.95000,-5.98559,-5.36965
39.00000,-5.99372,-5.37350
39.05000,-6.00185,-5.37307
39.10000,-6.01039,-5.37557
39.15000,-6.01879,-5.37937
39.20000,-6.02705,-5.38056
39.25000,-6.03532,-5.38297
39.30000,-6.04385,-5.38514
39.35000,-6.05199,-5.38658
39.40000,-6.06025,-5.38893
39.45000,-6.06865,-5.39035
39.50000,-6.07692,-5.39414
39.55000,-6.08519,-5.39348
39.60000,-6.09358,-5.39958
39.65000,-6.10198,-5.39937
39.70000,-6.11039,-5.40546
39.75000,-6.11865,-5.40519
39.80000,-6.12705,-5.41014
39.85000,-6.13559,-5.40899
39.90000,-6.14372,-5.41741
39.95000,-6.15185,-5.41174
40.00000,-6.16038,-5.42115
40.05000,-6.16879,-5.41923
40.10000,-6.17679,-5.42609
40.15000,-6.18532,-5.42015
40.20000,-6.19385,-5.43650
40.25000,-6.20185,-5.42655
40.30000,-6.21012,-5.43585
40.35000,-6.21878,-5.43589
40.40000,-6.22705,-5.44597
40.45000,-6.23532,-5.43711
40.50000,-6.24385,-5.45047
40.55000,-6.25212,-5.44810
40.60000,-6.26038,-5.45399
40.65000,-6.26878,-5.45236
40.70000,-6.27705,-5.46145
40.75000,-6.28558,-5.45885
40.80000,-6.29385,-5.46667
40.85000,-6.30185,-5.46415
40.90000,-6.31052,-5.46962
40.95000,-6.31892,-5.47110
41.00000,-6.32692,-5.47560
41.05000,-6.33532,-5.47368
41.10000,-6.34385,-5.47969
41.15000,-6.35185,-5.47911
41.20000,-6.36025,-5.48302
41.25000,-6.36892,-5.48307
41.30000,-6.37705,-5.48908
41.35000,-6.38518,-5.48787
41.40000,-6.39385,-5.49128
41.45000,-6.40212,-5.49339
41.50000,-6.41025,-5.49533
41.55000,-6.41878,-5.49838
41.60000,-6.42705,-5.49907
41.65000,-6.43545,-5.50265
41.70000,-6.44372,-5.50442
41.75000,-6.45198,-5.50717
41.80000,-6.46038,-5.50612
41.85000,-6.46865,-5.51258
41.90000,-6.47678,-5.51296
41.95000,-6.48518,-5.51550
42.00000,-6.49372,-5.51636
42.05000,-6.50198,-5.52537
42.10000,-6.51025,-5.52164
42.15000,-6.51892,-5.52851
42.20000,-6.52718,-5.52925
42.25000,-6.53532,-5.53438
42.30000,-6.54385,-5.53435
42.35000,-6.55225,-5.53965
42.40000,-6.56025,-5.53953
42.45000,-6.56852,-5.54421
42.50000,-6.57705,-5.54417
42.55000,-6.58518,-5.54902
42.60000,-6.59345,-5.54897
42.65000,-6.60185,-5.55479
42.70000,-6.61012,-5.55446
42.75000,-6.61852,-5.55971
42.80000,-6.62692,-5.56168
42.85000,-6.63532,-5.56437
42.90000,-6.64372,-5.56724
42.95000,-6.65198,-5.57167
43.00000,-6.66025,-5.57216
43.05000,-6.66878,-5.57612
43.10000,-6.67705,-5.57918
43.15000,-6.68518,-5.58122
43.20000,-6.69385,-5.58383
43.25000,-6.70225,-5.58904
43.30000,-6.71025,-5.58796
43.35000,-6.71865,-5.59124
43.40000,-6.72718,-5.59343
43.45000,-6.73518,-5.59590
43.50000,-6.74332,-5.59625
43.55000,-6.75198,-5.60050
43.60000,-6.76025,-5.60321
43.65000,-6.76852,-5.60611
43.70000,-6.77705,-5.60820
43.75000,-6.78545,-5.61181
43.80000,-6.79372,-5.61412
43.85000,-6.80212,-5.61586
43.90000,-6.81038,-5.61893
43.95000,-6.81892,-5.62029
44.00000,-6.82718,-5.62362
44.05000,-6.83518,-5.62439
44.10000,-6.84385,-5.62682
44.15000,-6.85212,-5.63000
44.20000,-6.86012,-5.63105
44.25000,-6.86865,-5.63235
44.30000,-6.87705,-5.63570
44.35000,-6.88505,-5.63722
44.40000,-6.89345,-5.63843
44.45000,-6.90225,-5.64124
44.50000,-6.91038,-5.64585
44.55000,-6.91852,-5.64439
44.60000,-6.92718,-5.64855
44.65000,-6.93545,-5.65065
44.70000,-6.94372,-5.65272
44.75000,-6.95212,-5.65506
44.80000,-6.96052,-5.65728
44.85000,-6.96878,-5.65932
44.90000,-6.97692,-5.66126
44.95000,-6.98532,-5.66177
45.00000,-6.99372,-5.66544
45.05000,-7.00198,-5.66642
45.10000,-7.01012,-5.66960
45.15000,-7.01865,-5.66920
45.20000,-7.02718,-5.67522
45.25000,-7.03532,-5.67624
45.30000,-7.04358,-5.67729
45.35000,-7.05225,-5.67968
45.40000,-7.06038,-5.68365
45.45000,-7.06852,-5.68299
45.50000,-7.07705,-5.68459
45.55000,-7.08558,-5.68792
45.60000,-7.09358,-5.68892
45.65000,-7.10198,-5.68968
45.70000,-7.11052,-5.69292
45.75000,-7.11865,-5.69385
45.80000,-7.12678,-5.69528
45.85000,-7.13532,-5.69757
45.90000,-7.14345,-5.69851
45.95000,-7.15172,-5.70103
46.00000,-7.16025,-5.70335
46.05000,-7.16865,-5.70550
46.10000,-7.17705,-5.70750
46.15000,-7.18532,-5.70998
46.20000,-7.19358,-5.70875
46.25000,-7.20212,-5.71155
46.30000,-7.21052,-5.71366
46.35000,-7.21865,-5.71532
46.40000,-7.22718,-5.71617
46.45000,-7.23545,-5.71921
46.50000,-7.24345,-5.71848
46.55000,-7.25185,-5.72014
46.60000,-7.26038,-5.72257
46.65000,-7.26852,-5.72360
46.70000,-7.27678,-5.72498
46.75000,-7.28545,-5.72792
46.80000,-7.29372,-5.72963
46.85000,-7.30198,-5.73159
46.90000,-7.31038,-5.73364
46.95000,-7.31865,-5.73580
47.00000,-7.32692,-5.73735
47.05000,-7.33532,-5.74082
47.10000,-7.34358,-5.74307
47.15000,-7.35212,-5.74660
47.20000,-7.36052,-5.74954
47.25000,-7.36865,-5.75273
47.30000,-7.37732,-5.75424
47.35000,-7.38558,-5.75856
47.40000,-7.39358,-5.75934
47.45000,-7.40198,-5.76073
47.50000,-7.41038,-5.76427
47.55000,-7.41838,-5.76658
47.60000,-7.42692,-5.76861
47.65000,-7.43558,-5.77309
47.70000,-7.44372,-5.77700
47.75000,-7.45198,-5.77854
47.80000,-7.46052,-5.78083
47.85000,-7.46878,-5.78520
47.90000,-7.47705,-5.78646
47.95000,-7.48558,-5.78940
48.00000,-7.49385,-5.79288
48.05000,-7.50211,-5.79494
48.10000,-7.51038,-5.79739
48.15000,-7.51865,-5.79992
48.20000,-7.52705,-5.80142
48.25000,-7.53532,-5.80511
48.30000,-7.54345,-5.80617
48.35000,-7.55185,-5.80901
48.40000,-7.56025,-5.81127
48.45000,-7.56851,-5.81595
48.50000,-7.57691,-5.81578
48.55000,-7.58531,-5.81954
48.60000,-7.59371,-5.82324
48.65000,-7.60198,-5.82353
48.70000,-7.61051,-5.82648
48.75000,-7.61891,-5.83135
48.80000,-7.62705,-5.83131
48.85000,-7.63531,-5.83289
48.90000,-7.64371,-5.83536
48.95000,-7.65185,-5.83871
49.00000,-7.66025,-5.83920
49.05000,-7.66878,-5.84451
49.10000,-7.67705,-5.84526
49.15000,-7.68531,-5.85025
49.20000,-7.69371,-5.85183
49.25000,-7.70211,-5.85390
49.30000,-7.71051,-5.85902
49.35000,-7.71878,-5.86178
49.40000,-7.72705,-5.86393
49.45000,-7.73558,-5.86756
49.50000,-7.74385,-5.87111
49.55000,-7.75198,-5.87206
49.60000,-7.76038,-5.87503
49.65000,-7.76891,-5.87795
49.70000,-7.77691,-5.88061
49.75000,-7.78531,-5.88165
49.80000,-7.79371,-5.88614
49.85000,-7.80185,-5.88775
49.90000,-7.81011,-5.89135
49.95000,-7.81878,-5.89349
50.00000,-7.82705,-5.89906
50.05000,-7.83531,-5.89845
50.10000,-7.84385,-5.90473
50.15000,-7.85198,-5.90528
50.20000,-7.86038,-5.90889
50.25000,-7.86891,-5.91284
50.30000,-7.87705,-5.91530
50.35000,-7.88545,-5.91726
50.40000,-7.89371,-5.92003
50.45000,-7.90185,-5.92251
50.50000,-7.91038,-5.92462
50.55000,-7.91865,-5.92646
50.60000,-7.92665,-5.93031
50.65000,-7.93531,-5.93046
50.70000,-7.94371,-5.93717
50.75000,-7.95171,-5.93653
50.80000,-7.96025,-5.94046
50.85000,-7.96891,-5.94350
50.90000,-7.97705,-5.94797
50.95000,-7.98531,-5.94750
51.00000,-7.99371,-5.95099
51.05000,-8.00211,-5.95287
51.10000,-8.01038,-5.95610
51.15000,-8.01891,-5.95890
51.20000,-8.02731,-5.96221
51.25000,-8.03545,-5.96328
51.30000,-8.04385,-5.96636
51.35000,-8.05211,-5.96780
51.40000,-8.06051,-5.97029
51.45000,-8.06878,-5.97221
51.50000,-8.07691,-5.97510
51.55000,-8.08531,-5.97610
51.60000,-8.09371,-5.97865
51.65000,-8.10198,-5.98328
51.70000,-8.11038,-5.98153
51.75000,-8.11891,-5.98752
51.80000,-8.12705,-5.98750
51.85000,-8.13531,-5.99063
51.90000,-8.14371,-5.99078
51.95000,-8.15211,-5.99550
52.00000,-8.16025,-5.99569
52.05000,-8.16851,-5.99725
52.10000,-8.17718,-5.99938
52.15000,-8.18518,-6.00107
52.20000,-8.19331,-6.00076
52.25000,-8.20198,-6.00439
52.30000,-8.21038,-6.00473
52.35000,-8.21851,-6.00799
52.40000,-8.22705,-6.00719
52.45000,-8.23531,-6.01075
52.50000,-8.24371,-6.01063
52.55000,-8.25198,-6.01550
52.60000,-8.26025,-6.01384
52.65000,-8.26878,-6.01805
52.70000,-8.27705,-6.01979
52.75000,-8.28518,-6.02115
52.80000,-8.29371,-6.02005
52.85000,-8.30211,-6.02581
52.90000,-8.31011,-6.02353
52.95000,-8.31851,-6.02604
53.00000,-8.32718,-6.02602
53.05000,-8.33518,-6.02988
53.10000,-8.34345,-6.02680
53.15000,-8.35225,-6.03218
53.20000,-8.36038,-6.02943
53.25000,-8.36865,-6.03415
53.30000,-8.37718,-6.03278
53.35000,-8.38545,-6.03648
53.40000,-8.39371,-6.03550
53.45000,-8.40211,-6.03779
53.50000,-8.41051,-6.03643
53.55000,-8.41891,-6.03761
53.60000,-8.42718,-6.03662
53.65000,-8.43518,-6.03684
53.70000,-8.44385,-6.03717
53.75000,-8.45211,-6.03864
53.80000,-8.46011,-6.03931
53.85000,-8.46865,-6.03950
53.90000,-8.47705,-6.04166
53.95000,-8.48518,-6.04345
54.00000,-8.49358,-6.04344
54.05000,-8.50225,-6.04568
54.10000,-8.51038,-6.04959
54.15000,-8.51865,-6.04819
54.20000,-8.52718,-6.05100
54.25000,-8.53558,-6.05323
54.30000,-8.54371,-6.05382
54.35000,-8.55211,-6.05414
54.40000,-8.56051,-6.05656
54.45000,-8.56865,-6.05506
54.50000,-8.57705,-6.05794
54.55000,-8.58518,-6.05739
54.60000,-8.59371,-6.05912
54.65000,-8.60185,-6.05829
54.70000,-8.61011,-6.06038
54.75000,-8.61865,-6.05869
54.80000,-8.62705,-6.06290
54.85000,-8.63531,-6.06192
54.90000,-8.64358,-6.06219
54.95000,-8.65211,-6.06223
55.00000,-8.66038,-6.06410
55.05000,-8.66851,-6.06250
55.10000,-8.67718,-6.06177
55.15000,-8.68558,-6.06404
55.20000,-8.69371,-6.06206
55.25000,-8.70198,-6.06112
55.30000,-8.71051,-6.05923
55.35000,-8.71865,-6.05946
55.40000,-8.72691,-6.05778
55.45000,-8.73531,-6.05767
55.50000,-8.74358,-6.05559
55.55000,-8.75171,-6.05580
55.60000,-8.76025,-6.05460
55.65000,-8.76865,-6.05483
55.70000,-8.77705,-6.05502
55.75000,-8.78531,-6.05496
55.80000,-8.79358,-6.05310
55.85000,-8.80211,-6.05231
55.90000,-8.81038,-6.05355
55.95000,-8.81851,-6.05186
56.00000,-8.82718,-6.05150
56.05000,-8.83558,-6.05269
56.10000,-8.84358,-6.05100
56.15000,-8.85198,-6.05082
56.20000,-8.86038,-6.04949
56.25000,-8.86851,-6.05003
56.30000,-8.87678,-6.04913
56.35000,-8.88545,-6.04871
56.40000,-8.89371,-6.04914
56.45000,-8.90184,-6.04896
56.50000,-8.91038,-6.04768
56.55000,-8.91864,-6.04929
56.60000,-8.92691,-6.04753
56.65000,-8.93544,-6.05086
56.70000,-8.94371,-6.04926
56.75000,-8.95225,-6.05198
56.80000,-8.96051,-6.05053
56.85000,-8.96864,-6.05283
56.90000,-8.97718,-6.05085
56.95000,-8.98544,-6.05292
57.00000,-8.99344,-6.05173
57.05000,-9.00198,-6.05263
57.10000,-9.01038,-6.05338
57.15000,-9.01838,-6.05509
57.20000,-9.02691,-6.05263
57.25000,-9.03558,-6.05710
57.30000,-9.04371,-6.05689
57.35000,-9.05198,-6.05564
57.40000,-9.06064,-6.05705
57.45000,-9.06891,-6.05873
57.50000,-9.07704,-6.05766
57.55000,-9.08558,-6.05919
57.60000,-9.09384,-6.05953
57.65000,-9.10198,-6.05957
57.70000,-9.11038,-6.06004
57.75000,-9.11864,-6.06157
57.80000,-9.12704,-6.06284
57.85000,-9.13531,-6.06408
57.90000,-9.14344,-6.06527
57.95000,-9.15184,-6.06432
58.00000,-9.16038,-6.06896
58.05000,-9.16851,-6.06915
58.10000,-9.17691,-6.07089
58.15000,-9.18558,-6.07190
58.20000,-9.19384,-6.07734
58.25000,-9.20198,-6.07493
58.30000,-9.21051,-6.07804
58.35000,-9.21891,-6.07985
58.40000,-9.22691,-6.08121
58.45000,-9.23518,-6.08077
58.50000,-9.24371,-6.08310
58.55000,-9.25171,-6.08331
58.60000,-9.25998,-6.08635
58.65000,-9.26851,-6.08784
58.70000,-9.27691,-6.09199
58.75000,-9.28504,-6.09269
58.80000,-9.29358,-6.09631
58.85000,-9.30198,-6.09740
58.90000,-9.31038,-6.10069
58.95000,-9.31851,-6.10242
59.00000,-9.32678,-6.10428
59.05000,-9.33531,-6.10564
59.10000,-9.34371,-6.11083
59.15000,-9.35198,-6.11337
59.20000,-9.36051,-6.11488
59.25000,-9.36878,-6.11738
59.30000,-9.37691,-6.11960
59.35000,-9.38531,-6.12052
59.40000,-9.39384,-6.12396
59.45000,-9.40171,-6.12492
59.50000,-9.41011,-6.12964
59.55000,-9.41878,-6.13022
59.60000,-9.42691,-6.13561
59.65000,-9.43531,-6.13773
59.70000,-9.44384,-6.14320
59.75000,-9.45211,-6.14454
59.80000,-9.46038,-6.14689
59.85000,-9.46878,-6.15119
59.90000,-9.47718,-6.15417
59.95000,-9.48544,-6.15638
60.00000,-9.49384,-6.16145
60.05000,-9.50198,-6.16153
60.10000,-9.51051,-6.16462
60.15000,-9.51878,-6.16774
60.20000,-9.52691,-6.16870
60.25000,-9.53531,-6.17246
60.30000,-9.54371,-6.17444
60.35000,-9.55184,-6.17811
60.40000,-9.56024,-6.17767
60.45000,-9.56878,-6.18535
60.50000,-9.57691,-6.18427
60.55000,-9.58518,-6.18947
60.60000,-9.59384,-6.18869
60.65000,-9.60211,-6.19950
60.70000,-9.61038,-6.19345
60.75000,-9.61891,-6.20314
60.80000,-9.62718,-6.20028
60.85000,-9.63531,-6.20804
60.90000,-9.64371,-6.20025
60.95000,-9.65198,-6.21608
61.00000,-9.66024,-6.20454
61.05000,-9.66851,-6.21949
61.10000,-9.67678,-6.21189
61.15000,-9.68531,-6.22204
61.20000,-9.69371,-6.21591
61.25000,-9.70198,-6.23228
61.30000,-9.71038,-6.21493
61.35000,-9.71891,-6.23841
61.40000,-9.72704,-6.22261
61.45000,-9.73518,-6.24011
61.50000,-9.74384,-6.22410
61.55000,-9.75224,-6.25336
61.60000,-9.76024,-6.22588
61.65000,-9.76851,-6.25704
61.70000,-9.77704,-6.23400
61.75000,-9.78518,-6.26106
61.80000,-9.79344,-6.24126
61.85000,-9.80198,-6.26593
61.90000,-9.81024,-6.24629
61.95000,-9.81851,-6.27292
62.00000,-9.82691,-6.25660
62.05000,-9.83531,-6.27648
62.10000,-9.84371,-6.26387
62.15000,-9.85198,-6.28886
62.20000,-9.86024,-6.27147
62.25000,-9.86878,-6.29040
62.30000,-9.87718,-6.28489
62.35000,-9.88531,-6.30301
62.40000,-9.89384,-6.28790
62.45000,-9.90211,-6.30710
62.50000,-9.91011,-6.30106
62.55000,-9.91851,-6.31355
62.60000,-9.92704,-6.30917
62.65000,-9.93504,-6.32099
62.70000,-9.94331,-6.31807
62.75000,-9.95198,-6.33318
62.80000,-9.96024,-6.32569
62.85000,-9.96851,-6.34204
62.90000,-9.97704,-6.33866
62.95000,-9.98531,-6.34751
63.00000,-9.99371,-6.34642
63.05000,-10.00224,-6.35703
63.10000,-10.01051,-6.35648
63.15000,-10.01891,-6.36636
63.20000,-10.02718,-6.36577
63.25000,-10.03531,-6.37572
63.30000,-10.04384,-6.37398
63.35000,-10.05211,-6.38328
63.40000,-10.06024,-6.38277
63.45000,-10.06864,-6.39553
63.50000,-10.07718,-6.38967
63.55000,-10.08518,-6.40313
63.60000,-10.09358,-6.40194
63.65000,-10.10238,-6.41158
63.70000,-10.11038,-6.41362
63.75000,-10.11864,-6.41902
63.80000,-10.12731,-6.42202
63.85000,-10.13544,-6.43030
63.90000,-10.14371,-6.42865
63.95000,-10.15211,-6.43789
64.00000,-10.16051,-6.44138
64.05000,-10.16864,-6.44452
64.10001,-10.17691,-6.44956
64.15000,-10.18518,-6.45424
64.20000,-10.19358,-6.45458
64.25000,-10.20184,-6.46561
64.30000,-10.21011,-6.46423
64.35001,-10.21864,-6.47322
64.40000,-10.22704,-6.47495
64.45000,-10.23518,-6.48647
64.50000,-10.24358,-6.48040
64.55000,-10.25211,-6.49796
64.60001,-10.26038,-6.49220
64.65000,-10.26864,-6.50739
64.70000,-10.27704,-6.50226
64.75000,-10.28557,-6.51726
64.80000,-10.29358,-6.51271
64.85001,-10.30184,-6.52632
64.90000,-10.31038,-6.51964
64.95000,-10.31864,-6.53635
65.00000,-10.32691,-6.53240
65.05000,-10.33531,-6.54665
65.10001,-10.34357,-6.53933
65.15000,-10.35184,-6.55729
65.20000,-10.36024,-6.55215
65.25000,-10.36864,-6.56224
65.30000,-10.37704,-6.56909
65.35001,-10.38531,-6.57388
65.40000,-10.39357,-6.57584
65.45000,-10.40224,-6.58407
65.50000,-10.41051,-6.58812
65.55000,-10.41864,-6.59166
65.60001,-10.42718,-6.59766
65.65000,-10.43544,-6.59998
65.70001,-10.44357,-6.60932
65.75000,-10.45197,-6.60712
65.80000,-10.46037,-6.61757
65.85001,-10.46851,-6.61641
65.90000,-10.47677,-6.62661
65.95001,-10.48531,-6.62497
66.00000,-10.49371,-6.63555
66.05000,-10.50197,-6.63841
66.10001,-10.51037,-6.64382
66.15000,-10.51877,-6.64829
66.20001,-10.52704,-6.65416
66.25000,-10.53544,-6.65853
66.30000,-10.54384,-6.66270
66.35001,-10.55224,-6.66892
66.40000,-10.56064,-6.67127
66.45001,-10.56864,-6.67877
66.50000,-10.57717,-6.67510
66.55000,-10.58544,-6.68967
66.60001,-10.59344,-6.68489
66.65000,-10.60184,-6.69271
66.70001,-10.61037,-6.69563
66.75000,-10.61851,-6.70323
66.80000,-10.62691,-6.70300
66.85001,-10.63557,-6.71247
66.90000,-10.64371,-6.71558
66.95001,-10.65184,-6.71726
67.00000,-10.66051,-6.72397
67.05000,-10.66877,-6.72757
67.10001,-10.67717,-6.74058
67.15000,-10.68557,-6.73144
67.20001,-10.69397,-6.75209
67.25000,-10.70211,-6.74292
67.30000,-10.71037,-6.75534
67.35001,-10.71864,-6.75286
67.40000,-10.72704,-6.76428
67.45001,-10.73531,-6.76149
67.50000,-10.74344,-6.77259
67.55000,-10.75197,-6.76763
67.60001,-10.76024,-6.77993
67.65000,-10.76851,-6.77979
67.70001,-10.77691,-6.78412
67.75000,-10.78544,-6.79064
67.80000,-10.79371,-6.79576
67.85001,-10.80184,-6.79864
67.90000,-10.81051,-6.80156
67.95001,-10.81891,-6.80969
68.00000,-10.82704,-6.80814
68.05000,-10.83531,-6.81680
68.10001,-10.84384,-6.81525
68.15000,-10.85184,-6.82429
68.20001,-10.86011,-6.82194
68.25000,-10.86864,-6.83069
68.30000,-10.87691,-6.82995
68.35001,-10.88504,-6.84012
68.40000,-10.89357,-6.83942
68.45001,-10.90197,-6.84855
68.50000,-10.91037,-6.84764
68.55000,-10.91864,-6.85936
68.60001,-10.92691,-6.85357
68.65000,-10.93544,-6.86790
68.70001,-10.94371,-6.86148
68.75000,-10.95197,-6.88117
68.80000,-10.96051,-6.86641
68.85001,-10.96877,-6.89045
68.90000,-10.97677,-6.87819
68.95001,-10.98531,-6.89483
69.00000,-10.99384,-6.88970
69.05000,-11.00184,-6.90548
69.10001,-11.01011,-6.89772
69.15000,-11.01877,-6.91530
69.20001,-11.02691,-6.90878
69.25000,-11.03517,-6.92259
69.30000,-11.04371,-6.92040
69.35001,-11.05211,-6.93202
69.40000,-11.06037,-6.93099
69.45001,-11.06877,-6.94230
69.50000,-11.07704,-6.93986
69.55000,-11.08544,-6.94870
69.60001,-11.09384,-6.95083
69.65000,-11.10184,-6.95740
69.70001,-11.11051,-6.95774
69.75000,-11.11877,-6.96688
69.80000,-11.12691,-6.96626
69.85001,-11.13531,-6.97590
69.90000,-11.14371,-6.97343
69.95001,-11.15171,-6.98451
70.00000,-11.16011,-6.98233
70.05000,-11.16891,-6.99326
70.10001,-11.17704,-6.99591
70.15000,-11.18531,-7.00261
70.20001,-11.19384,-7.00451
70.25000,-11.20224,-7.01411
70.30000,-11.21051,-7.01207
70.35001,-11.21891,-7.02335
70.40000,-11.22717,-7.02004
70.45001,-11.23544,-7.03011
70.50000,-11.24371,-7.02838
70.55000,-11.25197,-7.03745
70.60001,-11.26037,-7.03495
70.65000,-11.26864,-7.04277
70.70001,-11.27677,-7.04412
70.75000,-11.28531,-7.04777
70.80000,-11.29371,-7.05149
70.85001,-11.30184,-7.05864
70.90000,-11.31011,-7.05837
70.95001,-11.31877,-7.06365
71.00000,-11.32704,-7.07018
71.05000,-11.33531,-7.07155
71.10001,-11.34384,-7.07555
71.15000,-11.35237,-7.08299
71.20001,-11.36037,-7.08482
71.25000,-11.36864,-7.08809
71.30000,-11.37717,-7.09293
71.35001,-11.38517,-7.09562
71.40000,-11.39344,-7.09899
71.45001,-11.40184,-7.10433
71.50000,-11.41024,-7.10666
71.55000,-11.41851,-7.11263
71.60001,-11.42691,-7.11920
71.65000,-11.43531,-7.12302
71.70001,-11.44384,-7.12856
71.75000,-11.45211,-7.13695
71.80000,-11.46037,-7.13820
71.85001,-11.46877,-7.14513
71.90000,-11.47704,-7.14934
71.95001,-11.48517,-7.15552
72.00000,-11.49384,-7.15782
72.05000,-11.50211,-7.16677
72.10001,-11.51010,-7.16995
72.15000,-11.51851,-7.17391
72.20001,-11.52717,-7.18195
72.25000,-11.53517,-7.18847
72.30000,-11.54344,-7.19136
72.35001,-11.55211,-7.19958
72.40000,-11.56037,-7.20556
72.45001,-11.56864,-7.21232
72.50000,-11.57717,-7.21561
72.55000,-11.58544,-7.22457
72.60001,-11.59371,-7.22926
72.65000,-11.60224,-7.23491
72.70001,-11.61051,-7.24351
72.75000,-11.61877,-7.24765
72.80000,-11.62717,-7.25449
72.85001,-11.63517,-7.26020
72.90000,-11.64384,-7.26450
72.95001,-11.65224,-7.27457
73.00000,-11.66010,-7.27783
73.05000,-11.66864,-7.28310
73.10001,-11.67717,-7.29008
73.15000,-11.68517,-7.29831
73.20001,-11.69357,-7.30074
73.25000,-11.70224,-7.31175
73.30000,-11.71037,-7.31875
73.35001,-11.71851,-7.32260
73.40000,-11.72717,-7.32968
73.45001,-11.73544,-7.33907
73.50000,-11.74370,-7.34079
73.55000,-11.75224,-7.35010
73.60001,-11.76050,-7.35402
73.65000,-11.76864,-7.36183
73.70001,-11.77704,-7.36571
73.75000,-11.78517,-7.37284
73.80000,-11.79370,-7.37750
73.85001,-11.80197,-7.38501
73.90000,-11.81010,-7.39071
73.95001,-11.81864,-7.39429
74.00000,-11.82717,-7.40408
74.05000,-11.83530,-7.41060
74.10001,-11.84370,-7.41418
74.15000,-11.85224,-7.42138
74.20001,-11.86050,-7.42946
74.25000,-11.86864,-7.43193
74.30000,-11.87717,-7.43953
74.35001,-11.88557,-7.44481
74.40000,-11.89370,-7.45111
74.45001,-11.90197,-7.45425
74.50000,-11.91050,-7.46089
74.55000,-11.91864,-7.46424
74.60001,-11.92677,-7.46905
74.65000,-11.93530,-7.47474
74.70001,-11.94357,-7.48010
74.75000,-11.95170,-7.48666
74.80000,-11.96024,-7.49320
74.85001,-11.96850,-7.49807
74.90000,-11.97704,-7.50607
74.95001,-11.98530,-7.51326
75.00000,-11.99357,-7.51674
75.05000,-12.00210,-7.52404
75.10001,-12.01050,-7.53218
75.15000,-12.01864,-7.53592
75.20001,-12.02704,-7.53875
75.25000,-12.03544,-7.54826
75.30000,-12.04344,-7.55136
75.35001,-12.05184,-7.55668
75.40000,-12.06050,-7.56441
75.45001,-12.06850,-7.57300
75.50000,-12.07677,-7.57531
75.55000,-12.08530,-7.58334
75.60001,-12.09370,-7.59137
75.65000,-12.10197,-7.59730
75.70001,-12.11050,-7.60343
75.75000,-12.11877,-7.61057
75.80000,-12.12717,-7.61747
75.85001,-12.13544,-7.62354
75.90000,-12.14370,-7.62919
75.95001,-12.15224,-7.63506
76.00000,-12.16050,-7.64372
76.05000,-12.16850,-7.64754
76.10001,-12.17704,-7.65519
76.15000,-12.18544,-7.66036
76.20001,-12.19344,-7.67247
76.25000,-12.20184,-7.66939
76.30000,-12.21050,-7.68456
76.35001,-12.21850,-7.68589
76.40000,-12.22690,-7.69443
76.45001,-12.23557,-7.69893
76.50000,-12.24370,-7.71195
76.55000,-12.25197,-7.71276
76.60001,-12.26050,-7.72407
76.65000,-12.26890,-7.72882
76.70001,-12.27704,-7.74003
76.75000,-12.28544,-7.74064
76.80000,-12.29384,-7.75285
76.85001,-12.30210,-7.75695
76.90000,-12.31037,-7.76224
76.95001,-12.31864,-7.77101
77.00000,-12.32717,-7.77577
77.05000,-12.33544,-7.78265
77.10001,-12.34357,-7.78950
77.15000,-12.35197,-7.79360
77.20001,-12.36037,-7.80265
77.25000,-12.36864,-7.80905
77.30000,-12.37690,-7.81521
77.35001,-12.38557,-7.82193
77.40000,-12.39384,-7.82873
77.45001,-12.40197,-7.83526
77.50000,-12.41050,-7.84170
77.55000,-12.41890,-7.84936
77.60001,-12.42704,-7.85701
77.65000,-12.43530,-7.86186
77.70001,-12.44384,-7.86948
77.75000,-12.45197,-7.87442
77.80000,-12.46024,-7.88178
77.85001,-12.46864,-7.88881
77.90000,-12.47690,-7.89380
77.95001,-12.48517,-7.90251
78.00000,-12.49357,-7.90924
78.05000,-12.50197,-7.91440
78.10001,-12.51037,-7.92439
78.15000,-12.51877,-7.93169
78.20001,-12.52690,-7.93622
78.25000,-12.53557,-7.94572
78.30000,-12.54384,-7.95489
78.35001,-12.55197,-7.96023
78.40000,-12.56050,-7.96642
78.45001,-12.56877,-7.97530
78.50000,-12.57690,-7.98244
78.55000,-12.58517,-7.98624
78.60001,-12.59384,-7.99601
78.65000,-12.60184,-8.00253
78.70001,-12.61010,-8.00767
78.75000,-12.61864,-8.01417
78.80000,-12.62690,-8.02246
78.85001,-12.63504,-8.02795
78.90000,-12.64370,-8.03498
78.95001,-12.65210,-8.04164
79.00000,-12.66037,-8.05085
79.05000,-12.66877,-8.05533
79.10001,-12.67704,-8.06533
79.15000,-12.68557,-8.07049
79.20001,-12.69384,-8.07844
79.25000,-12.70197,-8.08478
79.30000,-12.71050,-8.09134
79.35001,-12.71890,-8.10060
79.40000,-12.72677,-8.10696
79.45001,-12.73517,-8.11209
79.50000,-12.74370,-8.12124
79.55000,-12.75184,-8.12941
79.60001,-12.76024,-8.13614
79.65000,-12.76890,-8.14515
79.70001,-12.77690,-8.15147
79.75000,-12.78517,-8.16110
79.80000,-12.79384,-8.16568
79.85001,-12.80210,-8.17712
79.90000,-12.81037,-8.18120
79.95001,-12.81877,-8.19179
80.00000,-12.82717,-8.19765
80.05000,-12.83530,-8.20724
80.10001,-12.84370,-8.21393
80.15000,-12.85197,-8.22439
80.20001,-12.86050,-8.22979
80.25000,-12.86877,-8.24360
80.30000,-12.87690,-8.24835
80.35001,-12.88530,-8.25598
80.40000,-12.89384,-8.26753
80.45001,-12.90197,-8.27797
80.50001,-12.91023,-8.28092
80.55000,-12.91890,-8.29379
80.60001,-12.92703,-8.30323
80.65000,-12.93517,-8.31039
80.70001,-12.94370,-8.31551
80.75001,-12.95224,-8.33051
80.80000,-12.96023,-8.33318
80.85001,-12.96864,-8.34408
80.90000,-12.97703,-8.34899
80.95001,-12.98530,-8.35854
81.00001,-12.99344,-8.36684
81.05000,-13.00197,-8.37482
81.10001,-13.01023,-8.38348
81.15000,-13.01850,-8.39084
81.20001,-13.02677,-8.40030
81.25001,-13.03517,-8.40757
81.30000,-13.04370,-8.41960
81.35001,-13.05197,-8.42711
81.40000,-13.06023,-8.43611
81.45001,-13.06877,-8.44398
81.50001,-13.07703,-8.45630
81.55000,-13.08517,-8.46153
81.60001,-13.09370,-8.47196
81.65000,-13.10210,-8.48100
81.70001,-13.11010,-8.48897
81.75001,-13.11850,-8.49414
81.80000,-13.12703,-8.50731
81.85001,-13.13503,-8.51075
81.90000,-13.14330,-8.52088
81.95001,-13.15197,-8.52723
82.00001,-13.16023,-8.54078
82.05000,-13.16863,-8.54493
82.10001,-13.17703,-8.55835
82.15000,-13.18543,-8.56426
82.20001,-13.19383,-8.57638
82.25001,-13.20210,-8.58184
82.30000,-13.21037,-8.59388
82.35001,-13.21890,-8.59913
82.40000,-13.22717,-8.61405
82.45001,-13.23517,-8.61624
82.50001,-13.24383,-8.62714
82.55000,-13.25210,-8.63543
82.60001,-13.26010,-8.64689
82.65000,-13.26863,-8.64908
82.70001,-13.27703,-8.66296
82.75001,-13.28503,-8.66929
82.80000,-13.29343,-8.67645
82.85001,-13.30210,-8.68402
82.90000,-13.31037,-8.70026
82.95001,-13.31863,-8.70187
83.00001,-13.32717,-8.71538
83.05000,-13.33557,-8.72005
83.10001,-13.34370,-8.73090
83.15000,-13.35210,-8.73568
83.20001,-13.36050,-8.74682
83.25001,-13.36877,-8.75337
83.30000,-13.37717,-8.76242
83.35001,-13.38530,-8.77113
83.40000,-13.39383,-8.77779
83.45001,-13.40210,-8.78829
83.50001,-13.41023,-8.79570
83.55000,-13.41863,-8.80156
83.60001,-13.42717,-8.81138
83.65000,-13.43530,-8.82109
83.70001,-13.44357,-8.82366
83.75001,-13.45210,-8.83537
83.80000,-13.46050,-8.84318
83.85001,-13.46877,-8.85108
83.90000,-13.47717,-8.85737
83.95001,-13.48543,-8.86691
84.00001,-13.49357,-8.87225
84.05000,-13.50197,-8.88063
84.10001,-13.51050,-8.88899
84.15000,-13.51863,-8.89414
84.20001,-13.52690,-8.90140
84.25001,-13.53530,-8.91232
84.30000,-13.54357,-8.91827
84.35001,-13.55183,-8.92779
84.40000,-13.56023,-8.93590
84.45001,-13.56850,-8.94315
84.50001,-13.57703,-8.95318
84.55000,-13.58530,-8.96379
84.60001,-13.59357,-8.96888
84.65000,-13.60197,-8.97783
84.70001,-13.61037,-8.98720
84.75001,-13.61850,-8.99337
84.80000,-13.62703,-9.00259
84.85001,-13.63543,-9.01348
84.90000,-13.64357,-9.02001
84.95001,-13.65183,-9.02432
85.00001,-13.66050,-9.03696
85.05000,-13.66850,-9.04260
85.10001,-13.67677,-9.05140
85.15000,-13.68543,-9.05838
85.20001,-13.69370,-9.07038
85.25001,-13.70197,-9.07488
85.30000,-13.71050,-9.08752
85.35001,-13.71877,-9.09310
85.40000,-13.72703,-9.10382
85.45001,-13.73557,-9.11223
85.50001,-13.74383,-9.11713
85.55000,-13.75223,-9.12945
85.60001,-13.76063,-9.13568
85.65000,-13.76863,-9.14436
85.70001,-13.77717,-9.14869
85.75001,-13.78543,-9.16099
85.80000,-13.79343,-9.16532
85.85001,-13.80197,-9.17581
85.90000,-13.81037,-9.18325
85.95001,-13.81837,-9.19575
86.00001,-13.82677,-9.19799
86.05000,-13.83557,-9.21456
86.10001,-13.84370,-9.22288
86.15000,-13.85197,-9.23316
86.20001,-13.86063,-9.23966
86.25001,-13.86877,-9.25345
86.30000,-13.87703,-9.25660
86.35001,-13.88543,-9.26988
86.40000,-13.89383,-9.27652
86.45001,-13.90210,-9.28736
86.50001,-13.91037,-9.29275
86.55000,-13.91863,-9.30463
86.60001,-13.92690,-9.30653
86.65000,-13.93517,-9.31942
86.70001,-13.94330,-9.32624
86.75001,-13.95183,-9.33406
86.80000,-13.96037,-9.34702
86.85001,-13.96850,-9.35863
86.90000,-13.97690,-9.36596
86.95001,-13.98570,-9.37876
87.00001,-13.99383,-9.38856
87.05000,-14.00183,-9.39411
87.10001,-14.01037,-9.40088
87.15000,-14.01877,-9.41245
87.20001,-14.02690,-9.41861
87.25001,-14.03530,-9.42758
87.30000,-14.04383,-9.43799
87.35001,-14.05197,-9.44714
87.40000,-14.06023,-9.45648
87.45001,-14.06863,-9.46751
87.50001,-14.07703,-9.47315
87.55000,-14.08530,-9.48531
87.60001,-14.09370,-9.49463
87.65000,-14.10197,-9.50285
87.70001,-14.11037,-9.51367
87.75001,-14.11863,-9.52638
87.80000,-14.12703,-9.53297
87.85001,-14.13557,-9.54344
87.90000,-14.14383,-9.55522
87.95001,-14.15197,-9.56128
88.00001,-14.16050,-9.56904
88.05000,-14.16877,-9.58313
88.10001,-14.17690,-9.59073
88.15000,-14.18530,-9.59737
88.20001,-14.19370,-9.60901
88.25001,-14.20183,-9.62017
88.30000,-14.21010,-9.62732
88.35001,-14.21863,-9.63819
88.40000,-14.22690,-9.65139
88.45001,-14.23503,-9.66020
88.50001,-14.24357,-9.66973
88.55000,-14.25197,-9.68137
88.60001,-14.26037,-9.69406
88.65000,-14.26877,-9.70460
88.70001,-14.27703,-9.71729
88.75001,-14.28557,-9.72938
88.80000,-14.29383,-9.74259
88.85001,-14.30183,-9.75154
88.90000,-14.31050,-9.76339
88.95001,-14.31890,-9.77748
89.00001,-14.32690,-9.78993
89.05000,-14.33530,-9.79808
89.10001,-14.34370,-9.81373
89.15000,-14.35170,-9.82509
89.20001,-14.36023,-9.83752
89.25001,-14.36890,-9.85403
89.30000,-14.37703,-9.86857
89.35001,-14.38516,-9.87763
89.40000,-14.39383,-9.89102
89.45001,-14.40210,-9.90755
89.50001,-14.41036,-9.91784
89.55000,-14.41890,-9.93339
89.60001,-14.42730,-9.94601
89.65000,-14.43543,-9.95870
89.70001,-14.44370,-9.96913
89.75001,-14.45196,-9.98469
89.80000,-14.46036,-9.99402
89.85001,-14.46863,-10.01162
89.90000,-14.47690,-10.02338
89.95001,-14.48530,-10.03604
90.00001,-14.49370,-10.05081
90.05000,-14.50196,-10.06747
90.10001,-14.51023,-10.07734
90.13600,-14.51650,-10.08897
