Time,Extension,Load
(sec),(mm),(N)
0.00000,-0.00013,-0.00015
0.05000,-0.00093,-0.00021
0.10000,-0.00467,-0.00027
0.15000,-0.01293,-0.00120
0.20000,-0.02387,-0.00012
0.25000,-0.03453,0.00002
0.30000,-0.04440,0.00000
0.35000,-0.05427,0.00000
0.40000,-0.06360,-0.00022
0.45000,-0.07267,-0.00137
0.50000,-0.08173,0.00046
0.55000,-0.09053,-0.00033
0.60000,-0.09920,-0.00062
0.65000,-0.10787,-0.00046
0.70000,-0.11640,-0.00014
0.75000,-0.12493,-0.00168
0.80000,-0.13333,0.00055
0.85000,-0.14173,-0.00247
0.90000,-0.15027,0.00069
0.95000,-0.15853,-0.00201
1.00000,-0.16653,-0.00066
1.05000,-0.17507,-0.00163
1.10000,-0.18347,-0.00090
1.15000,-0.19147,-0.00173
1.20000,-0.19973,-0.00118
1.25000,-0.20853,-0.00086
1.30000,-0.21680,-0.00241
1.35000,-0.22507,-0.00100
1.40000,-0.23373,-0.00146
1.45000,-0.24213,-0.00175
1.50000,-0.25040,-0.00203
1.55000,-0.25880,-0.00096
1.60000,-0.26720,-0.00250
1.65000,-0.27533,-0.00214
1.70000,-0.28373,-0.00192
1.75000,-0.29187,-0.00182
1.80000,-0.30040,-0.00315
1.85000,-0.30867,-0.00149
1.90000,-0.31680,-0.00302
1.95000,-0.32533,-0.00187
2.00000,-0.33360,-0.00373
2.05000,-0.34173,-0.00136
2.10000,-0.35013,-0.00408
2.15000,-0.35880,-0.00220
2.20000,-0.36693,-0.00385
2.25000,-0.37520,-0.00171
2.30000,-0.38373,-0.00398
2.35000,-0.39187,-0.00249
2.40000,-0.40013,-0.00439
2.45000,-0.40853,-0.00258
2.50000,-0.41693,-0.00446
2.55000,-0.42520,-0.00276
2.60000,-0.43360,-0.00497
2.65000,-0.44187,-0.00238
2.70000,-0.45013,-0.00529
2.75000,-0.45853,-0.00322
2.80000,-0.46667,-0.00478
2.85000,-0.47520,-0.00305
2.90000,-0.48360,-0.00536
2.95000,-0.49173,-0.00434
3.00000,-0.50027,-0.00537
3.05000,-0.50867,-0.00484
3.10000,-0.51680,-0.00617
3.15000,-0.52520,-0.00528
3.20000,-0.53387,-0.00604
3.25000,-0.54187,-0.00579
3.30000,-0.55000,-0.00748
3.35000,-0.55840,-0.00607
3.40000,-0.56667,-0.00696
3.45000,-0.57493,-0.00754
3.50000,-0.58347,-0.00787
3.55000,-0.59187,-0.00800
3.60000,-0.60000,-0.00858
3.65000,-0.60840,-0.00894
3.70000,-0.61680,-0.00997
3.75000,-0.62533,-0.01000
3.80000,-0.63373,-0.01066
3.85000,-0.64200,-0.01189
3.90000,-0.65027,-0.01120
3.95000,-0.65867,-0.01330
4.00000,-0.66693,-0.01334
4.05000,-0.67520,-0.01576
4.10000,-0.68373,-0.01484
4.15000,-0.69200,-0.01702
4.20000,-0.70000,-0.01683
4.25000,-0.70853,-0.01995
4.30000,-0.71680,-0.01846
4.35000,-0.72493,-0.02146
4.40000,-0.73333,-0.02216
4.45000,-0.74200,-0.02437
4.50000,-0.75013,-0.02493
4.55000,-0.75853,-0.02739
4.60000,-0.76706,-0.02831
4.65000,-0.77533,-0.03168
4.70000,-0.78360,-0.03215
4.75000,-0.79213,-0.03707
4.80000,-0.80040,-0.03641
4.85000,-0.80880,-0.04299
4.90000,-0.81706,-0.04282
4.95000,-0.82520,-0.04731
5.00000,-0.83373,-0.04913
5.05000,-0.84186,-0.05484
5.10000,-0.85013,-0.05532
5.15000,-0.85866,-0.06124
5.20000,-0.86693,-0.06277
5.25000,-0.87506,-0.06807
5.30000,-0.88360,-0.07125
5.35000,-0.89200,-0.07679
5.40000,-0.90013,-0.07963
5.45000,-0.90853,-0.08417
5.50000,-0.91720,-0.08811
5.55000,-0.92533,-0.09320
5.60000,-0.93373,-0.09588
5.65000,-0.94213,-0.10182
5.70000,-0.95040,-0.10528
5.75000,-0.95866,-0.11093
5.80000,-0.96693,-0.11380
5.85000,-0.97520,-0.11925
5.90000,-0.98360,-0.12342
5.95000,-0.99186,-0.12854
6.00000,-1.00000,-0.13265
6.05000,-1.00853,-0.13827
6.10000,-1.01693,-0.14292
6.15000,-1.02506,-0.14844
6.20000,-1.03360,-0.15184
6.25000,-1.04200,-0.15915
6.30000,-1.05013,-0.16246
6.35000,-1.05840,-0.16789
6.40000,-1.06706,-0.17299
6.45000,-1.07520,-0.17918
6.50000,-1.08346,-0.18390
6.55000,-1.09186,-0.18886
6.60000,-1.10026,-0.19540
6.65000,-1.10853,-0.20077
6.70000,-1.11666,-0.20569
6.75000,-1.12506,-0.21161
6.80000,-1.13333,-0.21730
6.85000,-1.14173,-0.22317
6.90000,-1.15013,-0.22892
6.95000,-1.15853,-0.23591
7.00000,-1.16693,-0.24223
7.05000,-1.17520,-0.24829
7.10000,-1.18360,-0.25465
7.15000,-1.19200,-0.26161
7.20000,-1.20026,-0.26917
7.25000,-1.20853,-0.27515
7.30000,-1.21706,-0.28330
7.35000,-1.22506,-0.29080
7.40000,-1.23320,-0.29690
7.45000,-1.24186,-0.30654
7.50000,-1.25026,-0.31160
7.55000,-1.25840,-0.32246
7.60000,-1.26680,-0.32765
7.65000,-1.27546,-0.33730
7.70000,-1.28360,-0.34433
7.75000,-1.29186,-0.35381
7.80000,-1.30040,-0.36023
7.85000,-1.30866,-0.37007
7.90000,-1.31693,-0.37686
7.95000,-1.32533,-0.38656
8.00000,-1.33373,-0.39312
8.05000,-1.34213,-0.40290
8.10000,-1.35040,-0.41029
8.15000,-1.35853,-0.41931
8.20000,-1.36693,-0.42636
8.25000,-1.37520,-0.43682
8.30000,-1.38333,-0.44350
8.35000,-1.39200,-0.45317
8.40000,-1.40026,-0.46116
8.45000,-1.40840,-0.47073
8.50000,-1.41693,-0.47875
8.55000,-1.42546,-0.48839
8.60000,-1.43360,-0.49724
8.65000,-1.44186,-0.50558
8.70000,-1.45053,-0.51376
8.75000,-1.45853,-0.52488
8.80000,-1.46693,-0.53113
8.85000,-1.47546,-0.54155
8.90000,-1.48360,-0.54954
8.95000,-1.49186,-0.56016
9.00000,-1.50026,-0.56702
9.05000,-1.50853,-0.57852
9.10000,-1.51693,-0.58539
9.15000,-1.52520,-0.59715
9.20000,-1.53333,-0.60453
9.25000,-1.54186,-0.61498
9.30000,-1.55026,-0.62424
9.35000,-1.55840,-0.63490
9.40000,-1.56680,-0.64295
9.45000,-1.57546,-0.65483
9.50000,-1.58346,-0.66074
9.55000,-1.59186,-0.67900
9.60000,-1.60040,-0.67679
9.65000,-1.60853,-0.69849
9.70000,-1.61680,-0.69994
9.75000,-1.62520,-0.71525
9.80000,-1.63346,-0.72047
9.85000,-1.64160,-0.73511
9.90000,-1.65000,-0.74043
9.95000,-1.65840,-0.75479
10.00000,-1.66666,-0.76005
10.05000,-1.67506,-0.77525
10.10000,-1.68346,-0.78017
10.15000,-1.69200,-0.79460
10.20000,-1.70040,-0.80253
10.25000,-1.70853,-0.81319
10.30000,-1.71693,-0.82364
10.35000,-1.72546,-0.83360
10.40000,-1.73360,-0.84413
10.45000,-1.74186,-0.85339
10.50000,-1.75040,-0.86580
10.55000,-1.75853,-0.87483
10.60000,-1.76680,-0.88556
10.65000,-1.77520,-0.89559
10.70000,-1.78360,-0.90849
10.75000,-1.79160,-0.91497
10.80000,-1.79986,-0.92936
10.85000,-1.80853,-0.93734
10.90000,-1.81680,-0.95012
10.95000,-1.82506,-0.96030
11.00000,-1.83360,-0.97209
11.05000,-1.84200,-0.98195
11.10000,-1.85026,-0.99365
11.15000,-1.85866,-1.00380
11.20000,-1.86706,-1.01646
11.25000,-1.87533,-1.02501
11.30000,-1.88373,-1.03870
11.35000,-1.89173,-1.04593
11.40000,-1.90026,-1.05892
11.45000,-1.90853,-1.07114
11.50000,-1.91666,-1.07877
11.55000,-1.92533,-1.09084
11.60000,-1.93360,-1.10449
11.65000,-1.94173,-1.11197
11.70000,-1.95026,-1.12373
11.75000,-1.95880,-1.13698
11.80000,-1.96693,-1.14615
11.85000,-1.97520,-1.15576
11.90000,-1.98386,-1.16876
11.95000,-1.99200,-1.17874
12.00000,-2.00026,-1.18844
12.05000,-2.00880,-1.20229
12.10000,-2.01706,-1.20967
12.15000,-2.02520,-1.22225
12.20000,-2.03359,-1.23403
12.25000,-2.04186,-1.24227
12.30000,-2.05026,-1.25590
12.35000,-2.05866,-1.26488
12.40000,-2.06666,-1.27866
12.45000,-2.07520,-1.28539
12.50000,-2.08359,-1.29919
12.55000,-2.09173,-1.31147
12.60000,-2.10026,-1.31995
12.65000,-2.10879,-1.33218
12.70000,-2.11679,-1.34301
12.75000,-2.12519,-1.35465
12.80000,-2.13373,-1.36451
12.85000,-2.14186,-1.37731
12.90000,-2.15013,-1.38631
12.95000,-2.15853,-1.39797
13.00000,-2.16693,-1.40951
13.05000,-2.17506,-1.41947
13.10000,-2.18346,-1.43006
13.15000,-2.19173,-1.44253
13.20000,-2.19999,-1.45210
13.25000,-2.20839,-1.46351
13.30000,-2.21666,-1.47424
13.35000,-2.22519,-1.48639
13.40000,-2.23359,-1.49726
13.45000,-2.24173,-1.50802
13.50000,-2.25013,-1.51911
13.55000,-2.25879,-1.53174
13.60000,-2.26693,-1.54029
13.65000,-2.27519,-1.55316
13.70000,-2.28373,-1.56347
13.75000,-2.29186,-1.57477
13.80000,-2.29999,-1.58377
13.85000,-2.30853,-1.59668
13.90000,-2.31693,-1.60734
13.95000,-2.32506,-1.61710
14.00000,-2.33333,-1.62828
14.05000,-2.34199,-1.63990
14.10000,-2.35026,-1.64990
14.15000,-2.35853,-1.66097
14.20000,-2.36706,-1.67222
14.25000,-2.37546,-1.68351
14.30000,-2.38359,-1.69179
14.35000,-2.39199,-1.70427
14.40000,-2.40039,-1.71459
14.45000,-2.40866,-1.72420
14.50000,-2.41706,-1.73461
14.55000,-2.42519,-1.74550
14.60000,-2.43386,-1.75703
14.65000,-2.44199,-1.76710
14.70000,-2.44999,-1.77583
14.75000,-2.45866,-1.78826
14.80000,-2.46693,-1.79819
14.85000,-2.47493,-1.80850
14.90000,-2.48346,-1.81493
14.95000,-2.49213,-1.83031
15.00000,-2.50026,-1.83623
15.05000,-2.50853,-1.85021
15.10000,-2.51719,-1.85449
15.15000,-2.52533,-1.87347
15.20000,-2.53359,-1.87545
15.25000,-2.54199,-1.89227
15.30000,-2.55026,-1.89785
15.35000,-2.55839,-1.91462
15.40000,-2.56666,-1.91790
15.45000,-2.57506,-1.93448
15.50000,-2.58359,-1.94266
15.55000,-2.59199,-1.95797
15.60000,-2.59999,-1.96260
15.65000,-2.60853,-1.97667
15.70000,-2.61693,-1.98620
15.75000,-2.62506,-1.99797
15.80000,-2.63359,-2.00607
15.85000,-2.64213,-2.01949
15.90000,-2.65026,-2.02803
15.95000,-2.65853,-2.03826
16.00000,-2.66719,-2.04993
16.05000,-2.67533,-2.05832
16.10000,-2.68346,-2.07076
16.15000,-2.69186,-2.07916
16.20000,-2.70026,-2.09153
16.25000,-2.70839,-2.10016
16.30000,-2.71666,-2.11193
16.35000,-2.72506,-2.12143
16.40000,-2.73346,-2.13138
16.45000,-2.74173,-2.14014
16.50000,-2.75013,-2.15234
16.55000,-2.75866,-2.15870
16.60000,-2.76693,-2.16997
16.65000,-2.77519,-2.17272
16.70000,-2.78359,-2.18141
16.75000,-2.79199,-2.19032
16.80000,-2.80026,-2.18921
16.85000,-2.80853,-2.17290
16.90000,-2.81706,-2.18708
16.95000,-2.82533,-2.20200
17.00000,-2.83346,-2.21517
17.05000,-2.84186,-2.22850
17.10000,-2.85026,-2.24306
17.15000,-2.85839,-2.25318
17.20000,-2.86666,-2.26613
17.25000,-2.87519,-2.27816
17.30000,-2.88346,-2.29029
17.35000,-2.89186,-2.30203
17.40000,-2.90026,-2.31332
17.45000,-2.90866,-2.32448
17.50000,-2.91693,-2.33993
17.55000,-2.92533,-2.34664
17.60000,-2.93373,-2.35931
17.65000,-2.94199,-2.37178
17.70000,-2.95039,-2.38317
17.75000,-2.95839,-2.39175
17.80000,-2.96693,-2.40459
17.85000,-2.97519,-2.41598
17.90000,-2.98319,-2.42633
17.95000,-2.99186,-2.43698
18.00000,-3.00026,-2.44868
18.05000,-3.00826,-2.46033
18.10000,-3.01679,-2.47080
18.15000,-3.02546,-2.48110
18.20000,-3.03346,-2.49297
18.25000,-3.04186,-2.50498
18.30000,-3.05039,-2.51347
18.35000,-3.05866,-2.52375
18.40000,-3.06679,-2.53647
18.45000,-3.07533,-2.54743
18.50000,-3.08373,-2.55415
18.55000,-3.09199,-2.56949
18.60000,-3.10026,-2.57800
18.65000,-3.10853,-2.58917
18.70000,-3.11706,-2.59781
18.75000,-3.12519,-2.61040
18.80000,-3.13333,-2.61932
18.85000,-3.14199,-2.63058
18.90000,-3.15039,-2.63796
18.95000,-3.15853,-2.65510
19.00000,-3.16693,-2.65917
19.05000,-3.17546,-2.67230
19.10000,-3.18359,-2.68068
19.15000,-3.19186,-2.69476
19.20000,-3.20039,-2.69865
19.25000,-3.20853,-2.71489
19.30000,-3.21666,-2.71845
19.35000,-3.22506,-2.73268
19.40000,-3.23346,-2.73948
19.45000,-3.24173,-2.75232
19.50000,-3.25013,-2.75938
19.55000,-3.25839,-2.77194
19.60000,-3.26679,-2.78160
19.65000,-3.27506,-2.78838
19.70000,-3.28346,-2.80106
19.75000,-3.29186,-2.81037
19.80000,-3.30026,-2.81991
19.85000,-3.30853,-2.82870
19.90000,-3.31679,-2.83998
19.95000,-3.32533,-2.84869
20.00000,-3.33359,-2.85894
20.05000,-3.34186,-2.86709
20.10000,-3.35039,-2.87940
20.15000,-3.35853,-2.88564
20.20000,-3.36666,-2.89517
20.25000,-3.37519,-2.90802
20.30000,-3.38373,-2.90990
20.35000,-3.39173,-2.92821
20.40000,-3.39999,-2.92888
20.45000,-3.40852,-2.94465
20.50000,-3.41679,-2.95004
20.55000,-3.42519,-2.96402
20.60000,-3.43372,-2.96967
20.65000,-3.44199,-2.98148
20.70000,-3.45026,-2.98880
20.75000,-3.45866,-3.00209
20.80000,-3.46692,-3.00740
20.85000,-3.47546,-3.01782
20.90000,-3.48372,-3.02809
20.95000,-3.49186,-3.03549
21.00000,-3.50052,-3.04551
21.05000,-3.50866,-3.05393
21.10000,-3.51666,-3.06561
21.15000,-3.52519,-3.06989
21.20000,-3.53359,-3.08352
21.25000,-3.54159,-3.08832
21.30000,-3.55026,-3.10050
21.35000,-3.55879,-3.10587
21.40000,-3.56692,-3.11864
21.45000,-3.57519,-3.12284
21.50000,-3.58386,-3.13520
21.55000,-3.59199,-3.14093
21.60000,-3.60026,-3.15256
21.65000,-3.60866,-3.15861
21.70000,-3.61706,-3.16933
21.75000,-3.62519,-3.17554
21.80000,-3.63346,-3.18613
21.85000,-3.64172,-3.19203
21.90000,-3.65012,-3.20513
21.95000,-3.65839,-3.20425
22.00000,-3.66652,-3.22475
22.05000,-3.67519,-3.22081
22.10000,-3.68359,-3.24157
22.15000,-3.69172,-3.23959
22.20000,-3.70012,-3.25706
22.25000,-3.70866,-3.25527
22.30000,-3.71679,-3.27433
22.35000,-3.72506,-3.27089
22.40000,-3.73359,-3.28748
22.45000,-3.74199,-3.27722
22.50000,-3.75012,-3.27729
22.55000,-3.75852,-3.28452
22.60000,-3.76692,-3.29711
22.65000,-3.77506,-3.30712
22.70000,-3.78332,-3.31324
22.75000,-3.79172,-3.32632
22.80000,-3.79999,-3.32997
22.85000,-3.80826,-3.34058
22.90000,-3.81679,-3.34405
22.95000,-3.82519,-3.35740
23.00000,-3.83359,-3.35988
23.05000,-3.84186,-3.37688
23.10000,-3.85039,-3.37145
23.15000,-3.85879,-3.39095
23.20000,-3.86679,-3.32324
23.25000,-3.87506,-3.33399
23.30000,-3.88359,-3.34162
23.35000,-3.89186,-3.36422
23.40000,-3.89999,-3.36329
23.45000,-3.90852,-3.38456
23.50000,-3.91706,-3.38709
23.55000,-3.92506,-3.40169
23.60000,-3.93332,-3.40588
23.65000,-3.94199,-3.42058
23.70000,-3.95026,-3.42600
23.75000,-3.95852,-3.43457
23.80000,-3.96706,-3.44392
23.85000,-3.97532,-3.44914
23.90000,-3.98359,-3.45988
23.95000,-3.99199,-3.46369
24.00000,-4.00039,-3.47585
24.05000,-4.00879,-3.48011
24.10000,-4.01706,-3.49338
24.15000,-4.02506,-3.49198
24.20000,-4.03359,-3.51022
24.25000,-4.04186,-3.50772
24.30000,-4.04999,-3.52485
24.35000,-4.05866,-3.52128
24.40000,-4.06692,-3.54208
24.45000,-4.07492,-3.53575
24.50000,-4.08346,-3.55669
24.55000,-4.09212,-3.55249
24.60000,-4.10026,-3.57074
24.65000,-4.10852,-3.56717
24.70000,-4.11719,-3.58556
24.75000,-4.12532,-3.58014
24.80000,-4.13359,-3.60184
24.85000,-4.14199,-3.59386
24.90000,-4.15039,-3.61399
24.95000,-4.15866,-3.61061
25.00000,-4.16692,-3.62395
25.05000,-4.17519,-3.62741
25.10000,-4.18372,-3.62946
25.15000,-4.19199,-3.63061
25.20000,-4.19999,-3.64182
25.25000,-4.20852,-3.64557
25.30000,-4.21692,-3.65221
25.35000,-4.22506,-3.66460
25.40000,-4.23359,-3.66255
25.45000,-4.24212,-3.67917
25.50000,-4.25012,-3.67783
25.55000,-4.25839,-3.69080
25.60000,-4.26706,-3.69079
25.65000,-4.27532,-3.70374
25.70000,-4.28346,-3.70312
25.75000,-4.29186,-3.71557
25.80000,-4.30026,-3.71664
25.85000,-4.30839,-3.72751
25.90000,-4.31679,-3.72873
25.95000,-4.32506,-3.73932
26.00000,-4.33346,-3.74276
26.05000,-4.34172,-3.75147
26.10000,-4.35012,-3.75512
26.15000,-4.35852,-3.76559
26.20000,-4.36692,-3.76939
26.25000,-4.37519,-3.77693
26.30000,-4.38346,-3.78138
26.35000,-4.39199,-3.78897
26.40000,-4.40012,-3.79404
26.45000,-4.40852,-3.80237
26.50000,-4.41706,-3.80329
26.55000,-4.42532,-3.81684
26.60000,-4.43346,-3.81506
26.65000,-4.44186,-3.82482
26.70000,-4.45026,-3.82677
26.75000,-4.45839,-3.83584
26.80000,-4.46666,-3.83500
26.85000,-4.47519,-3.84605
26.90000,-4.48359,-3.84904
26.95000,-4.49172,-3.85671
27.00000,-4.50039,-3.86057
27.05000,-4.50866,-3.86788
27.10000,-4.51706,-3.87220
27.15000,-4.52546,-3.88102
27.20000,-4.53372,-3.88096
27.25000,-4.54199,-3.89098
27.30000,-4.55026,-3.89311
27.35000,-4.55839,-3.90049
27.40000,-4.56719,-3.90536
27.45000,-4.57532,-3.90782
27.50000,-4.58346,-3.91787
27.55000,-4.59199,-3.91528
27.60000,-4.60039,-3.92825
27.65000,-4.60839,-3.92285
27.70000,-4.61692,-3.93749
27.75000,-4.62532,-3.93557
27.80000,-4.63359,-3.94674
27.85000,-4.64186,-3.94446
27.90000,-4.65039,-3.95810
27.95000,-4.65879,-3.95405
28.00000,-4.66706,-3.96812
28.05000,-4.67546,-3.96321
28.10000,-4.68359,-3.97785
28.15000,-4.69186,-3.97122
28.20000,-4.70026,-3.98616
28.25000,-4.70839,-3.98202
28.30000,-4.71679,-3.99268
28.35000,-4.72506,-3.99235
28.40000,-4.73319,-4.00343
28.45000,-4.74185,-4.00063
28.50000,-4.75026,-4.01232
28.55000,-4.75839,-4.01148
28.60000,-4.76692,-4.01919
28.65000,-4.77546,-4.02054
28.70000,-4.78359,-4.02734
28.75000,-4.79185,-4.02832
28.80000,-4.80039,-4.03453
28.85000,-4.80866,-4.03790
28.90000,-4.81679,-4.04158
28.95000,-4.82519,-4.04426
29.00000,-4.83359,-4.04996
29.05000,-4.84185,-4.05178
29.10000,-4.85012,-4.05682
29.15000,-4.85839,-4.05867
29.20000,-4.86665,-4.06366
29.25000,-4.87506,-4.06569
29.30000,-4.88345,-4.07130
29.35000,-4.89199,-4.07458
29.40000,-4.90039,-4.07924
29.45000,-4.90852,-4.08273
29.50000,-4.91705,-4.08571
29.55000,-4.92545,-4.08896
29.60000,-4.93359,-4.09441
29.65000,-4.94185,-4.09454
29.70000,-4.95039,-4.10070
29.75000,-4.95852,-4.10202
29.80000,-4.96665,-4.10716
29.85000,-4.97519,-4.10715
29.90000,-4.98359,-4.11448
29.95000,-4.99159,-4.11359
30.00000,-4.99999,-4.11916
30.05000,-5.00852,-4.12076
30.10000,-5.01679,-4.12486
30.15000,-5.02505,-4.12738
30.20000,-5.03359,-4.12894
30.25000,-5.04199,-4.13332
30.30000,-5.05039,-4.13772
30.35000,-5.05865,-4.13902
30.40000,-5.06705,-4.14341
30.45000,-5.07532,-4.14436
30.50000,-5.08372,-4.14996
30.55000,-5.09185,-4.15010
30.60000,-5.10039,-4.15619
30.65000,-5.10865,-4.15724
30.70000,-5.11665,-4.16113
30.75000,-5.12519,-4.16241
30.80000,-5.13359,-4.16698
30.85000,-5.14159,-4.16841
30.90000,-5.15012,-4.17282
30.95000,-5.15879,-4.17461
31.00000,-5.16692,-4.17868
31.05000,-5.17519,-4.17858
31.10000,-5.18385,-4.18347
31.15000,-5.19199,-4.18407
31.20000,-5.20025,-4.18795
31.25000,-5.20865,-4.18847
31.30000,-5.21692,-4.19178
31.35000,-5.22519,-4.19319
31.40000,-5.23359,-4.19618
31.45000,-5.24185,-4.19730
31.50000,-5.25025,-4.20086
31.55000,-5.25865,-4.20147
31.60000,-5.26665,-4.20475
31.65000,-5.27532,-4.20489
31.70000,-5.28359,-4.20985
31.75000,-5.29172,-4.20958
31.80000,-5.30025,-4.21296
31.85000,-5.30879,-4.21440
31.90000,-5.31679,-4.21785
31.95000,-5.32519,-4.21857
32.00000,-5.33372,-4.22044
32.05000,-5.34199,-4.22318
32.10000,-5.35012,-4.22539
32.15000,-5.35852,-4.22589
32.20000,-5.36692,-4.22929
32.25000,-5.37505,-4.22960
32.30000,-5.38332,-4.23311
32.35000,-5.39172,-4.23347
32.40000,-5.39999,-4.23613
32.45000,-5.40825,-4.23796
32.50000,-5.41679,-4.24068
32.55000,-5.42532,-4.24281
32.60000,-5.43359,-4.24289
32.65000,-5.44185,-4.24779
32.70000,-5.45025,-4.24580
32.75000,-5.45865,-4.25039
32.80000,-5.46692,-4.25015
32.85000,-5.47519,-4.25288
32.90000,-5.48372,-4.25227
32.95000,-5.49185,-4.25618
33.00000,-5.49999,-4.25571
33.05000,-5.50852,-4.25936
33.10000,-5.51692,-4.26030
33.15000,-5.52505,-4.26250
33.20000,-5.53332,-4.26334
33.25000,-5.54199,-4.26638
33.30000,-5.55025,-4.26785
33.35000,-5.55852,-4.26961
33.40000,-5.56705,-4.27152
33.45000,-5.57532,-4.27367
33.50000,-5.58359,-4.27458
33.55000,-5.59199,-4.27606
33.60000,-5.60039,-4.27740
33.65000,-5.60865,-4.27912
33.70000,-5.61705,-4.28066
33.75000,-5.62519,-4.28132
33.80000,-5.63359,-4.28172
33.85000,-5.64185,-4.28325
33.90000,-5.64999,-4.28366
33.95000,-5.65852,-4.28389
34.00000,-5.66692,-4.28605
34.05000,-5.67505,-4.28731
34.10000,-5.68359,-4.28713
34.15000,-5.69212,-4.28930
34.20000,-5.70012,-4.28949
34.25000,-5.70852,-4.29080
34.30000,-5.71719,-4.29057
34.35000,-5.72532,-4.29197
34.40000,-5.73359,-4.29196
34.45000,-5.74212,-4.29410
34.50000,-5.75025,-4.29286
34.55000,-5.75852,-4.29452
34.60000,-5.76692,-4.29424
34.65000,-5.77519,-4.29534
34.70000,-5.78359,-4.29431
34.75000,-5.79185,-4.29486
34.80000,-5.79999,-4.29556
34.85000,-5.80852,-4.29324
34.90000,-5.81692,-4.29575
34.95000,-5.82505,-4.29454
35.00000,-5.83359,-4.29494
35.05000,-5.84212,-4.29384
35.10000,-5.85012,-4.29494
35.15000,-5.85839,-4.29200
35.20000,-5.86692,-4.29480
35.25000,-5.87519,-4.28995
35.30000,-5.88345,-4.29632
35.35000,-5.89185,-4.28971
35.40000,-5.90025,-4.29402
35.45000,-5.90852,-4.29101
35.50000,-5.91679,-4.29264
35.55000,-5.92519,-4.28707
35.60000,-5.93345,-4.29395
35.65000,-5.94185,-4.28271
35.70000,-5.95012,-4.29206
35.75000,-5.95865,-4.28235
35.80000,-5.96692,-4.28864
35.85000,-5.97505,-4.28298
35.90000,-5.98359,-4.28504
35.95000,-5.99199,-4.28242
36.00000,-6.00025,-4.28434
36.05000,-6.00852,-4.28033
36.10000,-6.01705,-4.27722
36.15000,-6.02532,-4.28484
36.20000,-6.03345,-4.26983
36.25000,-6.04185,-4.28091
36.30000,-6.05025,-4.26914
36.35000,-6.05839,-4.27554
36.40000,-6.06665,-4.26668
36.45000,-6.07519,-4.27345
36.50000,-6.08332,-4.26442
36.55000,-6.09172,-4.26896
36.60000,-6.10025,-4.26640
36.65000,-6.10852,-4.26452
36.70000,-6.11692,-4.26643
36.75000,-6.12532,-4.26272
36.80000,-6.13359,-4.26368
36.85000,-6.14198,-4.26295
36.90000,-6.15025,-4.26424
36.95000,-6.15838,-4.25753
37.00000,-6.16692,-4.26776
37.05000,-6.17532,-4.25343
37.10000,-6.18345,-4.27049
37.15000,-6.19185,-4.25227
37.20000,-6.20012,-4.27049
37.25000,-6.20825,-4.25441
37.30000,-6.21692,-4.26981
37.35000,-6.22545,-4.25711
37.40000,-6.23345,-4.26950
37.45000,-6.24185,-4.25848
37.50000,-6.25038,-4.26761
37.55000,-6.25852,-4.26303
37.60000,-6.26678,-4.26362
37.65000,-6.27532,-4.26530
37.70000,-6.28372,-4.26522
37.75000,-6.29185,-4.26409
37.80000,-6.30025,-4.26685
37.85000,-6.30852,-4.26653
37.90000,-6.31692,-4.26401
37.95000,-6.32532,-4.27361
38.00000,-6.33345,-4.25870
38.05000,-6.34198,-4.27803
38.10000,-6.35038,-4.26038
38.15000,-6.35852,-4.27845
38.20000,-6.36692,-4.26471
38.25000,-6.37545,-4.27596
38.30000,-6.38345,-4.26728
38.35000,-6.39172,-4.27636
38.40000,-6.40038,-4.26745
38.45000,-6.40865,-4.27757
38.50000,-6.41678,-4.27168
38.55000,-6.42518,-4.27379
38.60000,-6.43358,-4.27748
38.65000,-6.44172,-4.27345
38.70000,-6.44998,-4.27885
38.75000,-6.45838,-4.27570
38.80000,-6.46665,-4.28109
38.85000,-6.47505,-4.27455
38.90000,-6.48345,-4.28752
38.95000,-6.49185,-4.27351
39.00000,-6.50025,-4.29069
39.05000,-6.50852,-4.27612
39.10000,-6.51692,-4.29113
39.15000,-6.52532,-4.27780
39.20000,-6.53358,-4.29315
39.25000,-6.54172,-4.27747
39.30000,-6.55038,-4.29362
39.35000,-6.55865,-4.28009
39.40000,-6.56678,-4.29336
39.45000,-6.57532,-4.28033
39.50000,-6.58358,-4.29353
39.55000,-6.59158,-4.28132
39.60000,-6.59998,-4.29082
39.65000,-6.60865,-4.28472
39.70000,-6.61692,-4.29201
39.75000,-6.62518,-4.28771
39.80000,-6.63372,-4.29250
39.85000,-6.64198,-4.29070
39.90000,-6.65038,-4.29441
39.95000,-6.65865,-4.29337
40.00000,-6.66705,-4.29548
40.05000,-6.67545,-4.29713
40.10000,-6.68372,-4.29790
40.15000,-6.69172,-4.29924
40.20000,-6.70025,-4.29934
40.25000,-6.70852,-4.30356
40.30000,-6.71665,-4.30102
40.35000,-6.72532,-4.30631
40.40000,-6.73358,-4.30338
40.45000,-6.74172,-4.30997
40.50000,-6.75025,-4.30592
40.55000,-6.75865,-4.31448
40.60000,-6.76678,-4.31097
40.65000,-6.77518,-4.31627
40.70000,-6.78385,-4.31563
40.75000,-6.79198,-4.32004
40.80000,-6.80025,-4.31863
40.85000,-6.80878,-4.32186
40.90000,-6.81705,-4.32211
40.95000,-6.82532,-4.32442
41.00000,-6.83358,-4.32446
41.05000,-6.84198,-4.32792
41.10000,-6.85025,-4.32665
41.15000,-6.85852,-4.33017
41.20000,-6.86665,-4.32893
41.25000,-6.87532,-4.33253
41.30000,-6.88372,-4.33187
41.35000,-6.89185,-4.33501
41.40000,-6.90038,-4.33431
41.45000,-6.90878,-4.33840
41.50000,-6.91692,-4.33672
41.55000,-6.92518,-4.34014
41.60000,-6.93372,-4.33859
41.65000,-6.94185,-4.34348
41.70000,-6.95012,-4.34211
41.75000,-6.95852,-4.34662
41.80000,-6.96678,-4.34381
41.85000,-6.97505,-4.34984
41.90000,-6.98345,-4.34702
41.95000,-6.99185,-4.35425
42.00000,-6.99998,-4.34855
42.05000,-7.00838,-4.35760
42.10000,-7.01678,-4.35351
42.15000,-7.02532,-4.36129
42.20000,-7.03358,-4.35753
42.25000,-7.04185,-4.36634
42.30000,-7.05025,-4.35908
42.35000,-7.05865,-4.36864
42.40000,-7.06692,-4.36389
42.45000,-7.07518,-4.36957
42.50000,-7.08372,-4.36596
42.55000,-7.09198,-4.37362
42.60000,-7.10012,-4.36873
42.65000,-7.10852,-4.37484
42.70000,-7.11692,-4.37263
42.75000,-7.12492,-4.37861
42.80000,-7.13332,-4.37387
42.85000,-7.14198,-4.38173
42.90000,-7.15025,-4.38022
42.95000,-7.15852,-4.38488
43.00000,-7.16705,-4.38339
43.05000,-7.17532,-4.38890
43.10000,-7.18358,-4.38721
43.15000,-7.19198,-4.39128
43.20000,-7.20025,-4.39324
43.25000,-7.20865,-4.39463
43.30000,-7.21705,-4.39911
43.35000,-7.22518,-4.39954
43.40000,-7.23372,-4.40210
43.45000,-7.24198,-4.40466
43.50000,-7.24998,-4.40713
43.55000,-7.25852,-4.40673
43.60000,-7.26692,-4.41215
43.65000,-7.27505,-4.41396
43.70000,-7.28358,-4.41379
43.75000,-7.29212,-4.41817
43.80000,-7.30012,-4.42375
43.85000,-7.30852,-4.41920
43.90000,-7.31718,-4.42847
43.95000,-7.32532,-4.42459
44.00000,-7.33358,-4.43186
44.05000,-7.34212,-4.42880
44.10000,-7.35038,-4.43684
44.15000,-7.35852,-4.43058
44.20000,-7.36692,-4.44217
44.25000,-7.37518,-4.43487
44.30000,-7.38358,-4.44133
44.35000,-7.39185,-4.44170
44.40000,-7.39998,-4.44482
44.45000,-7.40865,-4.44195
44.50000,-7.41705,-4.45038
44.55000,-7.42505,-4.44723
44.60000,-7.43358,-4.45207
44.65000,-7.44212,-4.45199
44.70000,-7.45025,-4.45632
44.75000,-7.45851,-4.45413
44.80000,-7.46705,-4.45910
44.85000,-7.47518,-4.46024
44.90000,-7.48345,-4.45647
44.95000,-7.49185,-4.46504
45.00000,-7.50011,-4.45872
45.05000,-7.50838,-4.46633
45.10000,-7.51665,-4.46061
45.15000,-7.52518,-4.46963
45.20000,-7.53345,-4.46239
45.25000,-7.54171,-4.47090
45.30000,-7.55011,-4.46586
45.35000,-7.55851,-4.47339
45.40000,-7.56691,-4.46959
45.45000,-7.57518,-4.47584
45.50000,-7.58358,-4.47339
45.55000,-7.59198,-4.47856
45.60000,-7.60011,-4.47848
45.65000,-7.60838,-4.48084
45.70000,-7.61705,-4.48202
45.75000,-7.62518,-4.48650
45.80000,-7.63331,-4.48517
45.85000,-7.64185,-4.48770
45.90000,-7.65025,-4.49122
45.95000,-7.65838,-4.49136
46.00000,-7.66665,-4.49536
46.05000,-7.67531,-4.49369
46.10000,-7.68345,-4.50402
46.15000,-7.69171,-4.49480
46.20000,-7.70038,-4.50921
46.25000,-7.70865,-4.50149
46.30000,-7.71691,-4.51045
46.35000,-7.72531,-4.50824
46.40000,-7.73371,-4.51444
46.45000,-7.74211,-4.51204
46.50000,-7.75038,-4.51892
46.55000,-7.75851,-4.51748
46.60000,-7.76705,-4.51966
46.65000,-7.77531,-4.52427
46.70000,-7.78331,-4.52240
46.75000,-7.79185,-4.52808
46.80000,-7.80025,-4.52764
46.85000,-7.80825,-4.53130
46.90000,-7.81678,-4.53409
46.95000,-7.82545,-4.53736
47.00000,-7.83358,-4.53577
47.05000,-7.84185,-4.54317
47.10000,-7.85051,-4.54174
47.15000,-7.85851,-4.54397
47.20000,-7.86678,-4.54740
47.25000,-7.87531,-4.54867
47.30000,-7.88371,-4.55219
47.35000,-7.89185,-4.55358
47.40000,-7.90025,-4.55626
47.45000,-7.90851,-4.55787
47.50000,-7.91691,-4.56049
47.55000,-7.92518,-4.56198
47.60000,-7.93331,-4.56398
47.65000,-7.94198,-4.56970
47.70000,-7.95038,-4.56665
47.75000,-7.95838,-4.57416
47.80000,-7.96691,-4.57340
47.85000,-7.97545,-4.57738
47.90000,-7.98345,-4.57912
47.95000,-7.99185,-4.58211
48.00000,-8.00038,-4.58109
48.05000,-8.00865,-4.58814
48.10000,-8.01678,-4.58687
48.15000,-8.02518,-4.59216
48.20000,-8.03358,-4.59047
48.25000,-8.04171,-4.59502
48.30000,-8.05011,-4.59484
48.35000,-8.05838,-4.59809
48.40000,-8.06678,-4.60023
48.45000,-8.07505,-4.60499
48.50000,-8.08345,-4.60333
48.55000,-8.09185,-4.60781
48.60000,-8.10025,-4.60986
48.65000,-8.10851,-4.61406
48.70000,-8.11678,-4.61277
48.75000,-8.12531,-4.61831
48.80000,-8.13345,-4.61783
48.85000,-8.14171,-4.62128
48.90000,-8.15038,-4.61818
48.95000,-8.15865,-4.63295
49.00000,-8.16665,-4.61895
49.05000,-8.17518,-4.63423
49.10000,-8.18371,-4.62773
49.15000,-8.19171,-4.63839
49.20000,-8.19998,-4.63209
49.25000,-8.20865,-4.64381
49.30000,-8.21691,-4.63874
49.35000,-8.22518,-4.65018
49.40000,-8.23358,-4.64205
49.45000,-8.24198,-4.65643
49.50000,-8.25025,-4.64960
49.55000,-8.25851,-4.65918
49.60000,-8.26691,-4.65867
49.65000,-8.27531,-4.66044
49.70000,-8.28358,-4.66803
49.75000,-8.29171,-4.66531
49.80000,-8.30025,-4.67248
49.85000,-8.30851,-4.67229
49.90000,-8.31665,-4.67787
49.95000,-8.32531,-4.67705
50.00000,-8.33358,-4.68441
50.05000,-8.34158,-4.68286
50.10000,-8.35011,-4.69061
50.15000,-8.35878,-4.68897
50.20000,-8.36691,-4.69788
50.25000,-8.37518,-4.69374
50.30000,-8.38385,-4.70384
50.35000,-8.39198,-4.70289
50.40000,-8.40025,-4.70817
50.45000,-8.40878,-4.70734
50.50000,-8.41705,-4.71458
50.55000,-8.42518,-4.71216
50.60000,-8.43345,-4.72008
50.65000,-8.44185,-4.71711
50.70000,-8.45038,-4.72747
50.75000,-8.45865,-4.72237
50.80000,-8.46665,-4.73322
50.85000,-8.47518,-4.72773
50.90000,-8.48358,-4.73665
50.95000,-8.49171,-4.73498
51.00000,-8.50025,-4.74043
51.05000,-8.50878,-4.74000
51.10000,-8.51678,-4.74683
51.15000,-8.52505,-4.74454
51.20000,-8.53358,-4.75085
51.25000,-8.54198,-4.75107
51.30000,-8.55025,-4.75654
51.35000,-8.55865,-4.75459
51.40000,-8.56691,-4.76211
51.45000,-8.57518,-4.75863
51.50000,-8.58345,-4.76592
51.55000,-8.59171,-4.76544
51.60000,-8.59998,-4.76854
51.65000,-8.60838,-4.77021
51.70000,-8.61678,-4.77533
51.75000,-8.62518,-4.77622
51.80000,-8.63358,-4.78123
51.85000,-8.64185,-4.78311
51.90000,-8.65025,-4.78766
51.95000,-8.65865,-4.78879
52.00000,-8.66691,-4.79493
52.05000,-8.67518,-4.79514
52.10000,-8.68371,-4.79945
52.15000,-8.69198,-4.80300
52.20000,-8.70011,-4.80538
52.25000,-8.70851,-4.80755
52.30000,-8.71691,-4.81209
52.35000,-8.72505,-4.81354
52.40000,-8.73331,-4.81726
52.45000,-8.74198,-4.81924
52.50000,-8.75011,-4.82379
52.55000,-8.75851,-4.82548
52.60000,-8.76705,-4.83013
52.65000,-8.77531,-4.83264
52.70000,-8.78358,-4.83572
52.75000,-8.79198,-4.83993
52.80000,-8.80038,-4.84155
52.85000,-8.80878,-4.84648
52.90000,-8.81705,-4.84790
52.95000,-8.82518,-4.85010
53.00000,-8.83385,-4.85193
53.05000,-8.84198,-4.85717
53.10000,-8.84998,-4.85739
53.15000,-8.85851,-4.86086
53.20000,-8.86691,-4.86367
53.25000,-8.87504,-4.86766
53.30000,-8.88358,-4.86898
53.35000,-8.89211,-4.87370
53.40000,-8.90024,-4.87527
53.45000,-8.90851,-4.87822
53.50000,-8.91704,-4.88014
53.55000,-8.92531,-4.88363
53.60000,-8.93358,-4.88540
53.65000,-8.94198,-4.88853
53.70000,-8.95024,-4.89079
53.75000,-8.95865,-4.89303
53.80000,-8.96691,-4.89628
53.85000,-8.97518,-4.89861
53.90000,-8.98358,-4.90043
53.95000,-8.99184,-4.90381
54.00000,-8.99985,-4.90429
54.05000,-9.00838,-4.90739
54.10000,-9.01691,-4.91061
54.15000,-9.02504,-4.91394
54.20000,-9.03358,-4.91432
54.25000,-9.04211,-4.91841
54.30000,-9.05024,-4.92046
54.35000,-9.05864,-4.92252
54.40000,-9.06718,-4.92399
54.45000,-9.07531,-4.92789
54.50000,-9.08344,-4.92785
54.55000,-9.09184,-4.93025
54.60000,-9.10024,-4.93202
54.65000,-9.10838,-4.93455
54.70000,-9.11664,-4.93678
54.75000,-9.12504,-4.93875
54.80000,-9.13344,-4.94137
54.85000,-9.14171,-4.94408
54.90000,-9.14998,-4.94544
54.95000,-9.15851,-4.94810
55.00000,-9.16691,-4.95144
55.05000,-9.17518,-4.95441
55.10000,-9.18344,-4.95463
55.15000,-9.19184,-4.95783
55.20000,-9.20024,-4.96100
55.25000,-9.20851,-4.96112
55.30000,-9.21718,-4.96478
55.35000,-9.22531,-4.96649
55.40000,-9.23344,-4.96633
55.45000,-9.24184,-4.96788
55.50000,-9.25024,-4.97083
55.55000,-9.25838,-4.97205
55.60000,-9.26664,-4.97283
55.65000,-9.27518,-4.97602
55.70000,-9.28358,-4.97822
55.75000,-9.29184,-4.98007
55.80000,-9.30038,-4.98265
55.85000,-9.30878,-4.98422
55.90000,-9.31704,-4.98657
55.95000,-9.32531,-4.98793
56.00000,-9.33371,-4.98987
56.05000,-9.34211,-4.99166
56.10000,-9.35038,-4.99419
56.15000,-9.35838,-4.99484
56.20000,-9.36704,-4.99692
56.25000,-9.37531,-4.99960
56.30000,-9.38331,-4.99964
56.35000,-9.39184,-5.00119
56.40000,-9.40024,-5.00375
56.45000,-9.40824,-5.00429
56.50000,-9.41678,-5.00531
56.55000,-9.42544,-5.00731
56.60000,-9.43344,-5.01056
56.65000,-9.44184,-5.00870
56.70000,-9.45038,-5.01324
56.75000,-9.45864,-5.01236
56.80000,-9.46691,-5.01606
56.85000,-9.47531,-5.01463
56.90000,-9.48371,-5.01717
56.95000,-9.49184,-5.01568
57.00000,-9.50011,-5.01782
57.05000,-9.50851,-5.01749
57.10000,-9.51691,-5.01946
57.15000,-9.52518,-5.02048
57.20000,-9.53331,-5.02167
57.25000,-9.54184,-5.02049
57.30000,-9.55038,-5.02556
57.35000,-9.55838,-5.02459
57.40000,-9.56678,-5.02532
57.45000,-9.57544,-5.02615
57.50000,-9.58344,-5.02839
57.55000,-9.59171,-5.02778
57.60000,-9.60038,-5.02829
57.65000,-9.60851,-5.03173
57.70000,-9.61664,-5.02941
57.75000,-9.62518,-5.03129
57.80000,-9.63358,-5.03217
57.85000,-9.64171,-5.03470
57.90000,-9.65011,-5.03304
57.95000,-9.65851,-5.03736
58.00000,-9.66664,-5.03556
58.05000,-9.67504,-5.03943
58.10000,-9.68331,-5.03874
58.15000,-9.69184,-5.04205
58.20000,-9.70038,-5.04224
58.25000,-9.70851,-5.04758
58.30000,-9.71691,-5.04240
58.35000,-9.72544,-5.05100
58.40000,-9.73358,-5.04593
58.45000,-9.74184,-5.05233
58.50000,-9.75038,-5.04902
58.55000,-9.75851,-5.05375
58.60000,-9.76664,-5.05102
58.65000,-9.77504,-5.05436
58.70000,-9.78358,-5.05535
58.75000,-9.79158,-5.05730
58.80000,-9.79998,-5.05848
58.85000,-9.80864,-5.06226
58.90000,-9.81691,-5.06274
58.95000,-9.82518,-5.06728
59.00000,-9.83358,-5.06659
59.05000,-9.84198,-5.07056
59.10000,-9.85024,-5.07101
59.15000,-9.85851,-5.07456
59.20000,-9.86678,-5.07487
59.25000,-9.87544,-5.07747
59.30000,-9.88371,-5.07968
59.35000,-9.89184,-5.08118
59.40000,-9.90038,-5.08072
59.45000,-9.90864,-5.08585
59.50000,-9.91664,-5.08453
59.55000,-9.92504,-5.08805
59.60000,-9.93344,-5.08760
59.65000,-9.94144,-5.09119
59.70000,-9.95011,-5.09163
59.75000,-9.95864,-5.09642
59.80000,-9.96691,-5.09732
59.85000,-9.97518,-5.10040
59.90000,-9.98371,-5.10068
59.95000,-9.99198,-5.10485
60.00000,-10.00024,-5.10330
60.05000,-10.00864,-5.10788
60.10000,-10.01704,-5.10674
60.15000,-10.02531,-5.11096
60.20000,-10.03358,-5.11060
60.25000,-10.04171,-5.11414
60.30000,-10.05024,-5.11270
60.35000,-10.05864,-5.11830
60.40000,-10.06678,-5.11678
60.45000,-10.07531,-5.12083
60.50000,-10.08371,-5.12004
60.55000,-10.09171,-5.12576
60.60000,-10.10024,-5.12422
60.65000,-10.10878,-5.12890
60.70000,-10.11691,-5.12927
60.75000,-10.12518,-5.13205
60.80000,-10.13371,-5.13265
60.85000,-10.14198,-5.13747
60.90000,-10.15024,-5.13762
60.95000,-10.15864,-5.13932
61.00000,-10.16691,-5.14068
61.05000,-10.17504,-5.14192
61.10000,-10.18331,-5.14308
61.15000,-10.19171,-5.14524
61.20000,-10.20011,-5.14654
61.25000,-10.20851,-5.14858
61.30000,-10.21691,-5.15133
61.35000,-10.22531,-5.15216
61.40000,-10.23371,-5.15473
61.45000,-10.24184,-5.14719
61.50000,-10.25024,-5.14678
61.55000,-10.25878,-5.15008
61.60000,-10.26691,-5.15267
61.65000,-10.27504,-5.15219
61.70000,-10.28358,-5.15538
61.75000,-10.29197,-5.15786
61.80000,-10.30011,-5.15803
61.85000,-10.30851,-5.16006
61.90000,-10.31691,-5.16259
61.95000,-10.32504,-5.16435
62.00000,-10.33344,-5.16539
62.05000,-10.34197,-5.16939
62.10000,-10.35011,-5.17081
62.15000,-10.35851,-5.17238
62.20000,-10.36691,-5.17628
62.25000,-10.37531,-5.17691
62.30000,-10.38371,-5.17846
62.35000,-10.39197,-5.18132
62.40000,-10.40037,-5.18218
62.45000,-10.40864,-5.18493
62.50000,-10.41691,-5.18643
62.55000,-10.42504,-5.18799
62.60000,-10.43357,-5.18881
62.65000,-10.44197,-5.19279
62.70000,-10.44997,-5.19207
62.75000,-10.45851,-5.19450
62.80000,-10.46691,-5.19653
62.85000,-10.47491,-5.19722
62.90000,-10.48357,-5.19798
62.95000,-10.49224,-5.20171
63.00000,-10.50011,-5.20196
63.05000,-10.50837,-5.20331
63.10000,-10.51691,-5.20449
63.15000,-10.52531,-5.20732
63.20000,-10.53357,-5.20718
63.25000,-10.54211,-5.21002
63.30000,-10.55051,-5.21248
63.35000,-10.55864,-5.21336
63.40000,-10.56704,-5.21383
63.45000,-10.57531,-5.21629
63.50000,-10.58371,-5.21709
63.55000,-10.59197,-5.22081
63.60000,-10.59997,-5.21996
63.65000,-10.60864,-5.22304
63.70000,-10.61704,-5.22476
63.75000,-10.62504,-5.22805
63.80000,-10.63357,-5.22751
63.85000,-10.64211,-5.23189
63.90000,-10.65011,-5.23215
63.95000,-10.65837,-5.23426
64.00000,-10.66704,-5.23544
64.05000,-10.67517,-5.24007
64.10001,-10.68344,-5.23864
64.15000,-10.69184,-5.24146
64.20000,-10.70011,-5.24242
64.25000,-10.70824,-5.24320
64.30000,-10.71651,-5.24475
64.35001,-10.72504,-5.24719
64.40000,-10.73344,-5.24832
64.45000,-10.74184,-5.25138
64.50000,-10.75011,-5.25397
64.55000,-10.75851,-5.25556
64.60001,-10.76691,-5.25910
64.65000,-10.77517,-5.26188
64.70000,-10.78357,-5.26403
64.75000,-10.79197,-5.26672
64.80000,-10.80024,-5.27090
64.85001,-10.80851,-5.27081
64.90000,-10.81704,-5.27356
64.95000,-10.82517,-5.27720
65.00000,-10.83331,-5.27779
65.05000,-10.84184,-5.27990
65.10001,-10.85024,-5.28234
65.15000,-10.85837,-5.28466
65.20000,-10.86664,-5.28566
65.25000,-10.87531,-5.28896
65.30000,-10.88357,-5.29087
65.35001,-10.89184,-5.29362
65.40000,-10.90037,-5.29580
65.45000,-10.90877,-5.29868
65.50000,-10.91704,-5.30050
65.55000,-10.92531,-5.30347
65.60001,-10.93371,-5.30423
65.65000,-10.94197,-5.30681
65.70001,-10.95037,-5.30878
65.75000,-10.95851,-5.30998
65.80000,-10.96704,-5.31256
65.85001,-10.97531,-5.31556
65.90000,-10.98331,-5.31627
65.95001,-10.99184,-5.31822
66.00000,-11.00024,-5.32165
66.05000,-11.00837,-5.32292
66.10001,-11.01691,-5.32569
66.15000,-11.02544,-5.32920
66.20001,-11.03344,-5.33172
66.25000,-11.04184,-5.33285
66.30000,-11.05051,-5.33681
66.35001,-11.05864,-5.33911
66.40000,-11.06704,-5.34076
66.45001,-11.07544,-5.34317
66.50000,-11.08371,-5.34572
66.55000,-11.09184,-5.34681
66.60001,-11.10011,-5.34873
66.65000,-11.10837,-5.34961
66.70001,-11.11691,-5.35217
66.75000,-11.12517,-5.35548
66.80000,-11.13331,-5.35650
66.85001,-11.14184,-5.35806
66.90000,-11.15024,-5.36097
66.95001,-11.15837,-5.36231
67.00000,-11.16677,-5.36308
67.05000,-11.17531,-5.36428
67.10001,-11.18344,-5.36736
67.15000,-11.19171,-5.36698
67.20001,-11.20037,-5.36970
67.25000,-11.20864,-5.37177
67.30000,-11.21691,-5.37287
67.35001,-11.22531,-5.37397
67.40000,-11.23371,-5.37574
67.45001,-11.24184,-5.37638
67.50000,-11.25011,-5.37810
67.55000,-11.25837,-5.37956
67.60001,-11.26664,-5.37979
67.65000,-11.27491,-5.38130
67.70001,-11.28331,-5.38445
67.75000,-11.29184,-5.38640
67.80000,-11.30024,-5.38899
67.85001,-11.30837,-5.39128
67.90000,-11.31677,-5.39098
67.95001,-11.32517,-5.39415
68.00000,-11.33344,-5.39679
68.05000,-11.34171,-5.39697
68.10001,-11.35037,-5.39974
68.15000,-11.35864,-5.40244
68.20001,-11.36677,-5.40317
68.25000,-11.37531,-5.40387
68.30000,-11.38357,-5.40782
68.35001,-11.39171,-5.40674
68.40000,-11.40011,-5.40840
68.45001,-11.40864,-5.41018
68.50000,-11.41691,-5.41142
68.55000,-11.42517,-5.41134
68.60001,-11.43371,-5.41344
68.65000,-11.44197,-5.41347
68.70001,-11.45024,-5.41481
68.75000,-11.45864,-5.41570
68.80000,-11.46704,-5.41575
68.85001,-11.47531,-5.41725
68.90000,-11.48371,-5.41798
68.95001,-11.49171,-5.41581
69.00000,-11.50037,-5.41558
69.05000,-11.50864,-5.41450
69.10001,-11.51677,-5.40983
69.15000,-11.52530,-5.40603
69.20001,-11.53357,-5.40770
69.25000,-11.54157,-5.40468
69.30000,-11.55024,-5.40549
69.35001,-11.55877,-5.40635
69.40000,-11.56691,-5.40789
69.45001,-11.57517,-5.40771
69.50000,-11.58384,-5.40897
69.55000,-11.59197,-5.41083
69.60001,-11.60037,-5.41110
69.65000,-11.60877,-5.41169
69.70001,-11.61704,-5.41240
69.75000,-11.62530,-5.41237
69.80000,-11.63357,-5.41472
69.85001,-11.64184,-5.41388
69.90000,-11.65024,-5.41495
69.95001,-11.65850,-5.41712
70.00000,-11.66664,-5.41691
70.05000,-11.67517,-5.41838
70.10001,-11.68357,-5.42064
70.15000,-11.69171,-5.42370
70.20001,-11.70010,-5.42270
70.25000,-11.70877,-5.42685
70.30000,-11.71691,-5.42899
70.35001,-11.72530,-5.42923
70.40000,-11.73384,-5.43039
70.45001,-11.74197,-5.43315
70.50000,-11.75010,-5.43189
70.55000,-11.75850,-5.43274
70.60001,-11.76664,-5.43274
70.65000,-11.77477,-5.43333
70.70001,-11.78317,-5.43361
70.75000,-11.79170,-5.43700
70.80000,-11.79997,-5.43748
70.85001,-11.80837,-5.44117
70.90000,-11.81677,-5.44132
70.95001,-11.82517,-5.44191
71.00000,-11.83344,-5.44361
71.05000,-11.84157,-5.44575
71.10001,-11.85010,-5.44567
71.15000,-11.85864,-5.44972
71.20001,-11.86690,-5.45142
71.25000,-11.87517,-5.45213
71.30000,-11.88384,-5.45272
71.35001,-11.89197,-5.45599
71.40000,-11.90010,-5.45474
71.45001,-11.90850,-5.45656
71.50000,-11.91690,-5.45838
71.55000,-11.92504,-5.45928
71.60001,-11.93330,-5.46019
71.65000,-11.94184,-5.46301
71.70001,-11.95024,-5.46519
71.75000,-11.95850,-5.46776
71.80000,-11.96704,-5.47065
71.85001,-11.97530,-5.47257
71.90000,-11.98357,-5.47504
71.95001,-11.99197,-5.47785
72.00000,-12.00037,-5.48095
72.05000,-12.00864,-5.48341
72.10001,-12.01704,-5.48684
72.15000,-12.02504,-5.48724
72.20001,-12.03357,-5.49078
72.25000,-12.04197,-5.49354
72.30000,-12.04997,-5.49526
72.35001,-12.05850,-5.49677
72.40000,-12.06690,-5.50101
72.45001,-12.07504,-5.50171
72.50000,-12.08357,-5.50528
72.55000,-12.09210,-5.50769
72.60001,-12.10010,-5.51089
72.65000,-12.10850,-5.51118
72.70001,-12.11717,-5.51557
72.75000,-12.12517,-5.51766
72.80000,-12.13357,-5.51973
72.85001,-12.14210,-5.52319
72.90000,-12.15024,-5.52550
72.95001,-12.15850,-5.52830
73.00000,-12.16690,-5.53081
73.05000,-12.17517,-5.53336
73.10001,-12.18357,-5.53535
73.15000,-12.19184,-5.53862
73.20001,-12.19997,-5.54113
73.25000,-12.20864,-5.54224
73.30000,-12.21704,-5.54629
73.35001,-12.22517,-5.54753
73.40000,-12.23357,-5.54950
73.45001,-12.24210,-5.55215
73.50000,-12.25010,-5.55443
73.55000,-12.25850,-5.55527
73.60001,-12.26704,-5.55772
73.65000,-12.27517,-5.56018
73.70001,-12.28344,-5.56048
73.75000,-12.29184,-5.56144
73.80000,-12.30010,-5.56393
73.85001,-12.30837,-5.56417
73.90000,-12.31664,-5.56584
73.95001,-12.32504,-5.56675
74.00000,-12.33330,-5.56599
74.05000,-12.34170,-5.56709
74.10001,-12.35010,-5.56808
74.15000,-12.35850,-5.56820
74.20001,-12.36690,-5.57058
74.25000,-12.37517,-5.57204
74.30000,-12.38357,-5.57141
74.35001,-12.39210,-5.57390
74.40000,-12.40037,-5.57518
74.45001,-12.40850,-5.57465
74.50000,-12.41704,-5.57599
74.55000,-12.42530,-5.57765
74.60001,-12.43330,-5.57660
74.65000,-12.44184,-5.57570
74.70001,-12.45024,-5.57970
74.75000,-12.45837,-5.57810
74.80000,-12.46677,-5.58000
74.85001,-12.47530,-5.58046
74.90000,-12.48357,-5.58294
74.95001,-12.49184,-5.58156
75.00000,-12.50024,-5.58445
75.05000,-12.50850,-5.58355
75.10001,-12.51690,-5.58659
75.15000,-12.52530,-5.58734
75.20001,-12.53370,-5.58783
75.25000,-12.54210,-5.58771
75.30000,-12.55037,-5.58903
75.35001,-12.55850,-5.58678
75.40000,-12.56704,-5.58646
75.45001,-12.57530,-5.58755
75.50000,-12.58344,-5.58657
75.55000,-12.59197,-5.58666
75.60001,-12.60024,-5.58756
75.65000,-12.60824,-5.58728
75.70001,-12.61690,-5.58781
75.75000,-12.62557,-5.59063
75.80000,-12.63357,-5.59097
75.85001,-12.64184,-5.58987
75.90000,-12.65050,-5.59155
75.95001,-12.65864,-5.59259
76.00000,-12.66690,-5.59207
76.05000,-12.67544,-5.59395
76.10001,-12.68370,-5.59446
76.15000,-12.69184,-5.59466
76.20001,-12.70024,-5.59537
76.25000,-12.70850,-5.59527
76.30000,-12.71690,-5.59647
76.35001,-12.72517,-5.59733
76.40000,-12.73330,-5.59713
76.45001,-12.74197,-5.59705
76.50000,-12.75024,-5.59993
76.55000,-12.75837,-5.59913
76.60001,-12.76690,-5.59874
76.65000,-12.77544,-5.59966
76.70001,-12.78344,-5.60111
76.75000,-12.79184,-5.59959
76.80000,-12.80050,-5.60148
76.85001,-12.80850,-5.60173
76.90000,-12.81677,-5.60050
76.95001,-12.82517,-5.59999
77.00000,-12.83357,-5.60201
77.05000,-12.84170,-5.59992
77.10001,-12.84997,-5.60043
77.15000,-12.85850,-5.60111
77.20001,-12.86663,-5.60008
77.25000,-12.87504,-5.60012
77.30000,-12.88330,-5.60040
77.35001,-12.89184,-5.60109
77.40000,-12.90024,-5.60122
77.45001,-12.90837,-5.60193
77.50000,-12.91690,-5.59897
77.55000,-12.92543,-5.59929
77.60001,-12.93357,-5.59879
77.65000,-12.94170,-5.59531
77.70001,-12.95037,-5.59334
77.75000,-12.95863,-5.59047
77.80000,-12.96677,-5.58494
77.85001,-12.97517,-5.57813
77.90000,-12.98357,-5.57510
77.95001,-12.99170,-5.57076
78.00000,-12.99997,-5.57027
78.05000,-13.00850,-5.56909
78.10001,-13.01677,-5.56930
78.15000,-13.02517,-5.56890
78.20001,-13.03370,-5.57029
78.25000,-13.04197,-5.56848
78.30000,-13.05037,-5.56954
78.35001,-13.05877,-5.57048
78.40000,-13.06704,-5.57164
78.45001,-13.07543,-5.57262
78.50000,-13.08370,-5.57518
78.55000,-13.09183,-5.57482
78.60001,-13.10037,-5.57660
78.65000,-13.10863,-5.57989
78.70001,-13.11663,-5.58030
78.75000,-13.12530,-5.58200
78.80000,-13.13357,-5.58668
78.85001,-13.14157,-5.58802
78.90000,-13.15023,-5.59049
78.95001,-13.15863,-5.59394
79.00000,-13.16663,-5.59566
79.05000,-13.17503,-5.59628
79.10001,-13.18383,-5.60182
79.15000,-13.19210,-5.60422
79.20001,-13.20037,-5.60649
79.25000,-13.20877,-5.60801
79.30000,-13.21703,-5.61058
79.35001,-13.22530,-5.61154
79.40000,-13.23357,-5.61505
79.45001,-13.24183,-5.61702
79.50000,-13.25023,-5.61973
79.55000,-13.25863,-5.62308
79.60001,-13.26663,-5.62563
79.65000,-13.27517,-5.62713
79.70001,-13.28357,-5.63206
79.75000,-13.29170,-5.63453
79.80000,-13.30010,-5.63811
79.85001,-13.30877,-5.64215
79.90000,-13.31677,-5.64534
79.95001,-13.32503,-5.64735
80.00000,-13.33370,-5.64972
80.05000,-13.34197,-5.65400
80.10001,-13.35010,-5.65600
80.15000,-13.35850,-5.65733
80.20001,-13.36690,-5.66217
80.25000,-13.37503,-5.66281
80.30000,-13.38330,-5.66593
80.35001,-13.39170,-5.66832
80.40000,-13.40010,-5.67094
80.45001,-13.40837,-5.67480
80.50001,-13.41677,-5.67793
80.55000,-13.42517,-5.68121
80.60001,-13.43357,-5.68532
80.65000,-13.44183,-5.68856
80.70001,-13.45010,-5.68923
80.75001,-13.45863,-5.69364
80.80000,-13.46690,-5.69767
80.85001,-13.47517,-5.69764
80.90000,-13.48370,-5.70074
80.95001,-13.49197,-5.70342
81.00001,-13.49997,-5.70276
81.05000,-13.50850,-5.70424
81.10001,-13.51690,-5.70726
81.15000,-13.52503,-5.70821
81.20001,-13.53330,-5.70984
81.25001,-13.54183,-5.71318
81.30000,-13.55010,-5.71452
81.35001,-13.55850,-5.71775
81.40000,-13.56690,-5.71882
81.45001,-13.57530,-5.72061
81.50001,-13.58370,-5.72367
81.55000,-13.59197,-5.72604
81.60001,-13.60037,-5.72749
81.65000,-13.60863,-5.72978
81.70001,-13.61703,-5.73159
81.75001,-13.62517,-5.73192
81.80000,-13.63370,-5.73377
81.85001,-13.64197,-5.73747
81.90000,-13.65010,-5.73567
81.95001,-13.65863,-5.73861
82.00001,-13.66690,-5.73942
82.05000,-13.67490,-5.74246
82.10001,-13.68343,-5.74360
82.15000,-13.69210,-5.74884
82.20001,-13.70023,-5.74849
82.25001,-13.70850,-5.75108
82.30000,-13.71717,-5.75034
82.35001,-13.72543,-5.75462
82.40000,-13.73357,-5.75035
82.45001,-13.74210,-5.75321
82.50001,-13.75037,-5.75127
82.55000,-13.75863,-5.75400
82.60001,-13.76690,-5.75309
82.65000,-13.77517,-5.75504
82.70001,-13.78357,-5.75489
82.75001,-13.79183,-5.75814
82.80000,-13.79997,-5.75849
82.85001,-13.80850,-5.76102
82.90000,-13.81690,-5.76394
82.95001,-13.82490,-5.76627
83.00001,-13.83343,-5.76680
83.05000,-13.84197,-5.77181
83.10001,-13.85010,-5.77348
83.15000,-13.85850,-5.77651
83.20001,-13.86717,-5.77889
83.25001,-13.87530,-5.78397
83.30000,-13.88343,-5.78351
83.35001,-13.89183,-5.78607
83.40000,-13.90023,-5.78811
83.45001,-13.90837,-5.79024
83.50001,-13.91663,-5.79195
83.55000,-13.92503,-5.79454
83.60001,-13.93330,-5.79641
83.65000,-13.94157,-5.79946
83.70001,-13.94997,-5.80295
83.75001,-13.95850,-5.80421
83.80000,-13.96690,-5.80631
83.85001,-13.97503,-5.81448
83.90000,-13.98343,-5.81095
83.95001,-13.99197,-5.81980
84.00001,-14.00023,-5.82077
84.05000,-14.00850,-5.82413
84.10001,-14.01717,-5.82599
84.15000,-14.02517,-5.83278
84.20001,-14.03330,-5.83244
84.25001,-14.04183,-5.83682
84.30000,-14.05023,-5.83999
84.35001,-14.05837,-5.84509
84.40000,-14.06663,-5.84087
84.45001,-14.07530,-5.85483
84.50001,-14.08357,-5.84953
84.55000,-14.09197,-5.86127
84.60001,-14.10037,-5.85656
84.65000,-14.10863,-5.86827
84.70001,-14.11703,-5.86493
84.75001,-14.12530,-5.87564
84.80000,-14.13370,-5.87141
84.85001,-14.14210,-5.88109
84.90000,-14.15023,-5.87702
84.95001,-14.15837,-5.88695
85.00001,-14.16703,-5.88063
85.05000,-14.17530,-5.89760
85.10001,-14.18343,-5.88653
85.15000,-14.19197,-5.90220
85.20001,-14.20037,-5.89591
85.25001,-14.20837,-5.90872
85.30000,-14.21690,-5.90242
85.35001,-14.22556,-5.91664
85.40000,-14.23356,-5.91104
85.45001,-14.24183,-5.92144
85.50001,-14.25037,-5.91767
85.55000,-14.25863,-5.92906
85.60001,-14.26690,-5.92713
85.65000,-14.27530,-5.93344
85.70001,-14.28370,-5.93617
85.75001,-14.29183,-5.93758
85.80000,-14.30023,-5.94505
85.85001,-14.30837,-5.94322
85.90000,-14.31690,-5.95056
85.95001,-14.32517,-5.95285
86.00001,-14.33330,-5.95938
86.05000,-14.34183,-5.95805
86.10001,-14.35023,-5.97123
86.15000,-14.35836,-5.96569
86.20001,-14.36690,-5.97899
86.25001,-14.37543,-5.97424
86.30000,-14.38356,-5.98843
86.35001,-14.39183,-5.98478
86.40000,-14.40036,-5.99540
86.45001,-14.40863,-5.99478
86.50001,-14.41676,-6.00253
86.55000,-14.42517,-6.00287
86.60001,-14.43356,-6.00938
86.65000,-14.44170,-6.01176
86.70001,-14.44996,-6.01775
86.75001,-14.45850,-6.01937
86.80000,-14.46663,-6.02632
86.85001,-14.47503,-6.02799
86.90000,-14.48330,-6.03278
86.95001,-14.49183,-6.03805
87.00001,-14.50023,-6.04244
87.05000,-14.50850,-6.04945
87.10001,-14.51690,-6.05034
87.15000,-14.52543,-6.06060
87.20001,-14.53370,-6.06050
87.25001,-14.54183,-6.07080
87.30000,-14.55036,-6.06385
87.35001,-14.55863,-6.08351
87.40000,-14.56663,-6.07318
87.45001,-14.57503,-6.08827
87.50001,-14.58356,-6.08615
87.55000,-14.59170,-6.09975
87.60001,-14.60010,-6.09661
87.65000,-14.60863,-6.11348
87.70001,-14.61690,-6.11111
87.75001,-14.62516,-6.12365
87.80000,-14.63356,-6.12364
87.85001,-14.64196,-6.13723
87.90000,-14.65036,-6.13610
87.95001,-14.65863,-6.15222
88.00001,-14.66703,-6.14821
88.05000,-14.67543,-6.16414
88.10001,-14.68370,-6.16572
88.15000,-14.69170,-6.17658
88.20001,-14.70036,-6.18012
88.25001,-14.70863,-6.19249
88.30000,-14.71663,-6.19626
88.35001,-14.72516,-6.20535
88.40000,-14.73356,-6.21077
88.45001,-14.74156,-6.22138
88.50001,-14.75010,-6.22466
88.55000,-14.75876,-6.23710
88.60001,-14.76690,-6.24246
88.65000,-14.77516,-6.24958
88.70001,-14.78383,-6.25645
88.75001,-14.79196,-6.26795
88.80000,-14.80023,-6.27187
88.85001,-14.80863,-6.28017
88.90000,-14.81703,-6.28674
88.95001,-14.82530,-6.29403
89.00001,-14.83356,-6.29880
89.05000,-14.84183,-6.30872
89.10001,-14.85036,-6.31274
89.15000,-14.85863,-6.32278
89.20001,-14.86663,-6.32543
89.25001,-14.87530,-6.33305
89.30000,-14.88370,-6.33771
89.35001,-14.89170,-6.34780
89.40000,-14.90023,-6.34940
89.45001,-14.90863,-6.35886
89.50001,-14.91676,-6.36403
89.55000,-14.92516,-6.36999
89.60001,-14.93370,-6.37400
89.65000,-14.94196,-6.38430
89.70001,-14.95010,-6.38894
89.75001,-14.95850,-6.39214
89.80000,-14.96676,-6.40006
89.85001,-14.97503,-6.40292
89.90000,-14.98330,-6.41149
89.95001,-14.99170,-6.41519
90.00001,-15.00010,-6.42069
90.05000,-15.00836,-6.42376
90.10001,-15.01676,-6.43137
90.15000,-15.02530,-6.43279
90.20001,-15.03370,-6.44253
90.23400,-15.03930,-6.44612
