Time,Extension,Load
(sec),(mm),(N)
0.00000,0.00000,-0.66507
0.05000,-0.00147,-0.66571
0.10000,-0.00693,-0.67310
0.15000,-0.01627,-0.69219
0.20000,-0.02627,-0.71429
0.25000,-0.03640,-0.73848
0.30000,-0.04613,-0.75739
0.35000,-0.05547,-0.77937
0.40000,-0.06467,-0.79617
0.45000,-0.07360,-0.81429
0.50000,-0.08227,-0.83233
0.55000,-0.09093,-0.84707
0.60000,-0.09947,-0.86569
0.65000,-0.10800,-0.87893
0.70000,-0.11640,-0.89976
0.75000,-0.12467,-0.90818
0.80000,-0.13320,-0.92893
0.85000,-0.14133,-0.93975
0.90000,-0.14947,-0.95752
0.95000,-0.15813,-0.96997
1.00000,-0.16640,-0.98647
1.05000,-0.17467,-1.00062
1.10000,-0.18320,-1.01516
1.15000,-0.19173,-1.02945
1.20000,-0.19987,-1.04347
1.25000,-0.20813,-1.05804
1.30000,-0.21680,-1.07182
1.35000,-0.22507,-1.08672
1.40000,-0.23320,-1.09989
1.45000,-0.24160,-1.11398
1.50000,-0.25000,-1.12810
1.55000,-0.25827,-1.14102
1.60000,-0.26667,-1.15434
1.65000,-0.27493,-1.16843
1.70000,-0.28320,-1.18094
1.75000,-0.29147,-1.19580
1.80000,-0.29973,-1.20639
1.85000,-0.30827,-1.22198
1.90000,-0.31653,-1.23273
1.95000,-0.32467,-1.24850
2.00000,-0.33320,-1.25849
2.05000,-0.34187,-1.27402
2.10000,-0.34987,-1.28528
2.15000,-0.35813,-1.29919
2.20000,-0.36680,-1.31091
2.25000,-0.37493,-1.32426
2.30000,-0.38320,-1.33700
2.35000,-0.39173,-1.34839
2.40000,-0.40000,-1.36200
2.45000,-0.40813,-1.37456
2.50000,-0.41640,-1.38641
2.55000,-0.42480,-1.39922
2.60000,-0.43307,-1.41082
2.65000,-0.44147,-1.42479
2.70000,-0.44987,-1.43551
2.75000,-0.45827,-1.44904
2.80000,-0.46653,-1.46059
2.85000,-0.47480,-1.47347
2.90000,-0.48320,-1.48509
2.95000,-0.49173,-1.49733
3.00000,-0.49987,-1.51088
3.05000,-0.50827,-1.52164
3.10000,-0.51680,-1.53490
3.15000,-0.52493,-1.54635
3.20000,-0.53320,-1.55843
3.25000,-0.54160,-1.57004
3.30000,-0.55000,-1.58181
3.35000,-0.55787,-1.59441
3.40000,-0.56627,-1.60512
3.45000,-0.57493,-1.61863
3.50000,-0.58320,-1.62921
3.55000,-0.59147,-1.64274
3.60000,-0.60000,-1.65417
3.65000,-0.60840,-1.66668
3.70000,-0.61667,-1.67827
3.75000,-0.62507,-1.69033
3.80000,-0.63347,-1.70208
3.85000,-0.64173,-1.71399
3.90000,-0.65000,-1.72609
3.95000,-0.65813,-1.73652
4.00000,-0.66667,-1.74922
4.05000,-0.67493,-1.76027
4.10000,-0.68306,-1.77216
4.15000,-0.69160,-1.78385
4.20000,-0.69986,-1.79567
4.25000,-0.70800,-1.80717
4.30000,-0.71653,-1.81880
4.35000,-0.72520,-1.83151
4.40000,-0.73333,-1.84217
4.45000,-0.74160,-1.85425
4.50000,-0.75026,-1.86562
4.55000,-0.75840,-1.87765
4.60000,-0.76666,-1.88901
4.65000,-0.77506,-1.90070
4.70000,-0.78346,-1.91241
4.75000,-0.79160,-1.92295
4.80000,-0.79986,-1.93499
4.85000,-0.80813,-1.94599
4.90000,-0.81653,-1.95696
4.95000,-0.82466,-1.96929
5.00000,-0.83293,-1.98000
5.05000,-0.84160,-1.99199
5.10000,-0.85000,-2.00336
5.15000,-0.85813,-2.01535
5.20000,-0.86653,-2.02553
5.25000,-0.87506,-2.03758
5.30000,-0.88320,-2.04870
5.35000,-0.89146,-2.05989
5.40000,-0.90013,-2.07097
5.45000,-0.90813,-2.08241
5.50000,-0.91640,-2.09378
5.55000,-0.92493,-2.10466
5.60000,-0.93333,-2.11702
5.65000,-0.94146,-2.12671
5.70000,-0.94973,-2.13978
5.75000,-0.95813,-2.14842
5.80000,-0.96626,-2.16094
5.85000,-0.97466,-2.17120
5.90000,-0.98306,-2.18367
5.95000,-0.99160,-2.19385
6.00000,-1.00000,-2.20615
6.05000,-1.00826,-2.21677
6.10000,-1.01666,-2.22810
6.15000,-1.02520,-2.23876
6.20000,-1.03333,-2.25116
6.25000,-1.04160,-2.26088
6.30000,-1.05000,-2.27233
6.35000,-1.05826,-2.28329
6.40000,-1.06640,-2.29474
6.45000,-1.07493,-2.30462
6.50000,-1.08333,-2.31747
6.55000,-1.09146,-2.32713
6.60000,-1.09973,-2.33861
6.65000,-1.10826,-2.34959
6.70000,-1.11653,-2.36107
6.75000,-1.12480,-2.37233
6.80000,-1.13333,-2.38254
6.85000,-1.14173,-2.39521
6.90000,-1.15013,-2.40495
6.95000,-1.15840,-2.41689
7.00000,-1.16680,-2.42664
7.05000,-1.17520,-2.43826
7.10000,-1.18333,-2.44941
7.15000,-1.19160,-2.45877
7.20000,-1.20000,-2.47092
7.25000,-1.20826,-2.48109
7.30000,-1.21640,-2.49187
7.35000,-1.22480,-2.50151
7.40000,-1.23306,-2.51350
7.45000,-1.24133,-2.52302
7.50000,-1.24986,-2.53403
7.55000,-1.25840,-2.54584
7.60000,-1.26653,-2.55543
7.65000,-1.27493,-2.56654
7.70000,-1.28346,-2.57671
7.75000,-1.29173,-2.56647
7.80000,-1.30013,-2.33295
7.85000,-1.30840,-2.29150
7.90000,-1.31666,-2.31603
7.95000,-1.32493,-2.34016
8.00000,-1.33333,-2.36313
8.05000,-1.34160,-2.38318
8.10000,-1.34986,-2.40127
8.15000,-1.35826,-2.41831
8.20000,-1.36640,-2.43523
8.25000,-1.37493,-2.45115
8.30000,-1.38333,-2.46735
8.35000,-1.39146,-2.48332
8.40000,-1.40000,-2.49703
8.45000,-1.40853,-2.51216
8.50000,-1.41653,-2.52486
8.55000,-1.42493,-2.53727
8.60000,-1.43346,-2.54804
8.65000,-1.44160,-2.56120
8.70000,-1.44986,-2.57159
8.75000,-1.45826,-2.58410
8.80000,-1.46640,-2.59649
8.85000,-1.47453,-2.60686
8.90000,-1.48293,-2.61943
8.95000,-1.49146,-2.63166
9.00000,-1.49973,-2.64345
9.05000,-1.50813,-2.65474
9.10000,-1.51653,-2.66835
9.15000,-1.52493,-2.67953
9.20000,-1.53333,-2.69094
9.25000,-1.54160,-2.70255
9.30000,-1.55000,-2.71398
9.35000,-1.55840,-2.72439
9.40000,-1.56666,-2.73676
9.45000,-1.57493,-2.74641
9.50000,-1.58346,-2.75800
9.55000,-1.59173,-2.76653
9.60000,-1.59973,-2.77833
9.65000,-1.60826,-2.78782
9.70000,-1.61653,-2.80089
9.75000,-1.62466,-2.80979
9.80000,-1.63306,-2.82203
9.85000,-1.64160,-2.83290
9.90000,-1.64986,-2.84499
9.95000,-1.65813,-2.85496
10.00000,-1.66666,-2.86674
10.05000,-1.67493,-2.87828
10.10000,-1.68333,-2.88922
10.15000,-1.69173,-2.89954
10.20000,-1.70000,-2.91140
10.25000,-1.70840,-2.92165
10.30000,-1.71680,-2.93284
10.35000,-1.72493,-2.94254
10.40000,-1.73333,-2.95420
10.45000,-1.74160,-2.96426
10.50000,-1.74973,-2.97461
10.55000,-1.75826,-2.98501
10.60000,-1.76653,-2.99605
10.65000,-1.77480,-3.00568
10.70000,-1.78333,-3.01568
10.75000,-1.79173,-3.02718
10.80000,-1.79986,-3.03620
10.85000,-1.80813,-3.04640
10.90000,-1.81680,-3.05467
10.95000,-1.82493,-3.06635
11.00000,-1.83333,-3.07561
11.05000,-1.84186,-3.08761
11.10000,-1.85013,-3.09598
11.15000,-1.85826,-3.10692
11.20000,-1.86666,-3.11631
11.25000,-1.87493,-3.12618
11.30000,-1.88333,-3.13537
11.35000,-1.89160,-3.14669
11.40000,-1.89960,-3.15518
11.45000,-1.90826,-3.16594
11.50000,-1.91653,-3.17525
11.55000,-1.92466,-3.18653
11.60000,-1.93320,-3.19401
11.65000,-1.94173,-3.20535
11.70000,-1.94986,-3.21411
11.75000,-1.95826,-3.22472
11.80000,-1.96680,-3.23265
11.85000,-1.97493,-3.24495
11.90000,-1.98320,-3.25269
11.95000,-1.99146,-3.26350
12.00000,-1.99973,-3.27222
12.05000,-2.00800,-3.28282
12.10000,-2.01640,-3.29153
12.15000,-2.02480,-3.30236
12.20000,-2.03306,-3.31141
12.25000,-2.04146,-3.32166
12.30000,-2.04973,-3.33193
12.35000,-2.05826,-3.34171
12.40000,-2.06666,-3.35137
12.45000,-2.07480,-3.36090
12.50000,-2.08333,-3.37012
12.55000,-2.09173,-3.38037
12.60000,-2.09986,-3.39021
12.65000,-2.10826,-3.40012
12.70000,-2.11679,-3.40904
12.75000,-2.12493,-3.41929
12.80000,-2.13306,-3.42781
12.85000,-2.14146,-3.43715
12.90000,-2.14986,-3.44634
12.95000,-2.15799,-3.45620
13.00000,-2.16653,-3.46484
13.05000,-2.17506,-3.47576
13.10000,-2.18333,-3.48362
13.15000,-2.19159,-3.49362
13.20000,-2.20013,-3.50205
13.25000,-2.20853,-3.51131
13.30000,-2.21666,-3.51936
13.35000,-2.22506,-3.52919
13.40000,-2.23346,-3.53747
13.45000,-2.24186,-3.54815
13.50000,-2.25013,-3.55598
13.55000,-2.25826,-3.56592
13.60000,-2.26679,-3.57438
13.65000,-2.27493,-3.58486
13.70000,-2.28306,-3.59180
13.75000,-2.29159,-3.60240
13.80000,-2.29986,-3.61137
13.85000,-2.30799,-3.62070
13.90000,-2.31653,-3.62988
13.95000,-2.32506,-3.64046
14.00000,-2.33306,-3.64904
14.05000,-2.34146,-3.65937
14.10000,-2.35013,-3.66706
14.15000,-2.35826,-3.67940
14.20000,-2.36653,-3.68493
14.25000,-2.37493,-3.69728
14.30000,-2.38319,-3.70385
14.35000,-2.39146,-3.71537
14.40000,-2.39986,-3.72225
14.45000,-2.40799,-3.73243
14.50000,-2.41653,-3.74044
14.55000,-2.42466,-3.75042
14.60000,-2.43279,-3.75830
14.65000,-2.44159,-3.76691
14.70000,-2.44986,-3.77647
14.75000,-2.45799,-3.78516
14.80000,-2.46653,-3.79336
14.85000,-2.47506,-3.80399
14.90000,-2.48319,-3.81142
14.95000,-2.49159,-3.82177
15.00000,-2.50013,-3.82964
15.05000,-2.50826,-3.83825
15.10000,-2.51653,-3.84773
15.15000,-2.52493,-3.85459
15.20000,-2.53333,-3.86545
15.25000,-2.54146,-3.87060
15.30000,-2.54973,-3.88428
15.35000,-2.55813,-3.88738
15.40000,-2.56639,-3.90073
15.45000,-2.57466,-3.90475
15.50000,-2.58306,-3.91886
15.55000,-2.59159,-3.92204
15.60000,-2.59999,-3.93460
15.65000,-2.60826,-3.94186
15.70000,-2.61666,-3.95019
15.75000,-2.62519,-3.95909
15.80000,-2.63333,-3.96604
15.85000,-2.64159,-3.97711
15.90000,-2.65013,-3.98283
15.95000,-2.65826,-3.99405
16.00000,-2.66639,-4.00010
16.05000,-2.67493,-4.00976
16.10000,-2.68333,-4.01747
16.15000,-2.69133,-4.02654
16.20000,-2.69959,-4.03286
16.25000,-2.70826,-4.04421
16.30000,-2.71653,-4.04867
16.35000,-2.72493,-4.06324
16.40000,-2.73333,-4.06476
16.45000,-2.74173,-4.08049
16.50000,-2.74999,-4.08050
16.55000,-2.75839,-4.09761
16.60000,-2.76679,-4.09780
16.65000,-2.77519,-4.11262
16.70000,-2.78346,-4.11648
16.75000,-2.79146,-4.12652
16.80000,-2.79986,-4.13352
16.85000,-2.80813,-4.14187
16.90000,-2.81626,-4.15095
16.95000,-2.82493,-4.15616
17.00000,-2.83319,-4.16784
17.05000,-2.84146,-4.17293
17.10000,-2.84999,-4.18306
17.15000,-2.85853,-4.19026
17.20000,-2.86666,-4.19900
17.25000,-2.87493,-4.20472
17.30000,-2.88346,-4.21497
17.35000,-2.89159,-4.21954
17.40000,-2.89986,-4.23140
17.45000,-2.90839,-4.23352
17.50000,-2.91679,-4.24965
17.55000,-2.92493,-4.24661
17.60000,-2.93333,-4.26587
17.65000,-2.94159,-4.26091
17.70000,-2.94999,-4.28083
17.75000,-2.95826,-4.27731
17.80000,-2.96639,-4.29509
17.85000,-2.97493,-4.29326
17.90000,-2.98333,-4.30968
17.95000,-2.99146,-4.30991
18.00000,-2.99999,-4.32365
18.05000,-3.00853,-4.32469
18.10000,-3.01653,-4.34002
18.15000,-3.02493,-4.33777
18.20000,-3.03359,-4.35646
18.25000,-3.04159,-4.35157
18.30000,-3.04986,-4.37236
18.35000,-3.05826,-4.36678
18.40000,-3.06653,-4.38631
18.45000,-3.07479,-4.38264
18.50000,-3.08306,-4.39931
18.55000,-3.09133,-4.39856
18.60000,-3.09973,-4.41143
18.65000,-3.10799,-4.41461
18.70000,-3.11639,-4.42587
18.75000,-3.12506,-4.42937
18.80000,-3.13333,-4.44148
18.85000,-3.14146,-4.44451
18.90000,-3.14999,-4.45532
18.95000,-3.15839,-4.45842
19.00000,-3.16666,-4.47060
19.05000,-3.17493,-4.47268
19.10000,-3.18346,-4.48307
19.15000,-3.19159,-4.48877
19.20000,-3.19973,-4.49496
19.25000,-3.20826,-4.50306
19.30000,-3.21653,-4.50802
19.35000,-3.22466,-4.51830
19.40000,-3.23306,-4.52147
19.45000,-3.24173,-4.53224
19.50000,-3.24999,-4.53739
19.55000,-3.25826,-4.54528
19.60000,-3.26666,-4.55177
19.65000,-3.27506,-4.55897
19.70000,-3.28333,-4.56488
19.75000,-3.29173,-4.57378
19.80000,-3.30013,-4.57731
19.85000,-3.30839,-4.58858
19.90000,-3.31666,-4.59005
19.95000,-3.32493,-4.60269
20.00000,-3.33333,-4.60357
20.05000,-3.34159,-4.61547
20.10000,-3.34973,-4.61700
20.15000,-3.35826,-4.62818
20.20000,-3.36653,-4.63184
20.25000,-3.37466,-4.64096
20.30000,-3.38319,-4.64496
20.35000,-3.39186,-4.65611
20.40000,-3.39986,-4.65809
20.45000,-3.40812,-4.66896
20.50000,-3.41679,-4.67012
20.55000,-3.42506,-4.68339
20.60000,-3.43319,-4.68248
20.65000,-3.44159,-4.69553
20.70000,-3.44999,-4.69630
20.75000,-3.45826,-4.70633
20.80000,-3.46652,-4.71018
20.85000,-3.47466,-4.71766
20.90000,-3.48319,-4.72326
20.95000,-3.49146,-4.73112
21.00000,-3.49959,-4.73528
21.05000,-3.50826,-4.74455
21.10000,-3.51679,-4.74788
21.15000,-3.52479,-4.75818
21.20000,-3.53332,-4.75902
21.25000,-3.54172,-4.77046
21.30000,-3.54986,-4.77328
21.35000,-3.55812,-4.78115
21.40000,-3.56679,-4.78620
21.45000,-3.57506,-4.79257
21.50000,-3.58319,-4.79909
21.55000,-3.59159,-4.80523
21.60000,-3.59986,-4.81085
21.65000,-3.60812,-4.81703
21.70000,-3.61639,-4.82252
21.75000,-3.62479,-4.82978
21.80000,-3.63306,-4.83231
21.85000,-3.64146,-4.84216
21.90000,-3.64972,-4.84639
21.95000,-3.65826,-4.85335
22.00000,-3.66666,-4.86015
22.05000,-3.67479,-4.86551
22.10000,-3.68332,-4.87282
22.15000,-3.69186,-4.87646
22.20000,-3.69999,-4.88568
22.25000,-3.70812,-4.88823
22.30000,-3.71666,-4.89639
22.35000,-3.72492,-4.90115
22.40000,-3.73306,-4.90707
22.45000,-3.74159,-4.91296
22.50000,-3.74999,-4.91914
22.55000,-3.75812,-4.92563
22.60000,-3.76639,-4.93006
22.65000,-3.77492,-4.93591
22.70000,-3.78319,-4.94352
22.75000,-3.79146,-4.94626
22.80000,-3.79999,-4.95479
22.85000,-3.80839,-4.95878
22.90000,-3.81666,-4.96707
22.95000,-3.82492,-4.96979
23.00000,-3.83332,-4.97645
23.05000,-3.84172,-4.98203
23.10000,-3.84999,-4.98893
23.15000,-3.85826,-4.99178
23.20000,-3.86679,-4.99936
23.25000,-3.87492,-5.00382
23.30000,-3.88306,-5.00954
23.35000,-3.89159,-5.01343
23.40000,-3.89999,-5.02124
23.45000,-3.90812,-5.02416
23.50000,-3.91666,-5.03151
23.55000,-3.92519,-5.03529
23.60000,-3.93332,-5.04167
23.65000,-3.94172,-5.04556
23.70000,-3.95026,-5.05200
23.75000,-3.95852,-5.05600
23.80000,-3.96666,-5.06156
23.85000,-3.97519,-5.06598
23.90000,-3.98346,-5.07175
23.95000,-3.99159,-5.07575
24.00000,-3.99999,-5.08114
24.05000,-4.00839,-5.08549
24.10000,-4.01679,-5.09088
24.15000,-4.02492,-5.09465
24.20000,-4.03306,-5.10102
24.25000,-4.04172,-5.10302
24.30000,-4.05012,-5.11098
24.35000,-4.05812,-5.11306
24.40000,-4.06652,-5.11902
24.45000,-4.07506,-5.12302
24.50000,-4.08319,-5.12917
24.55000,-4.09146,-5.13229
24.60000,-4.10012,-5.13759
24.65000,-4.10826,-5.14203
24.70000,-4.11652,-5.14728
24.75000,-4.12479,-5.14993
24.80000,-4.13306,-5.15604
24.85000,-4.14132,-5.15933
24.90000,-4.14972,-5.16539
24.95000,-4.15812,-5.16945
25.00000,-4.16652,-5.17371
25.05000,-4.17492,-5.17850
25.10000,-4.18319,-5.18311
25.15000,-4.19172,-5.18650
25.20000,-4.19999,-5.19167
25.25000,-4.20826,-5.19626
25.30000,-4.21666,-5.20059
25.35000,-4.22519,-5.20523
25.40000,-4.23332,-5.20991
25.45000,-4.24146,-5.21337
25.50000,-4.24999,-5.21758
25.55000,-4.25839,-5.22272
25.60000,-4.26652,-5.22658
25.65000,-4.27492,-5.23100
25.70000,-4.28332,-5.23619
25.75000,-4.29146,-5.24021
25.80000,-4.29986,-5.24449
25.85000,-4.30839,-5.25001
25.90000,-4.31666,-5.25399
25.95000,-4.32492,-5.25867
26.00000,-4.33332,-5.26296
26.05000,-4.34186,-5.26787
26.10000,-4.35012,-5.27139
26.15000,-4.35839,-5.27705
26.20000,-4.36679,-5.27931
26.25000,-4.37519,-5.28531
26.30000,-4.38332,-5.28919
26.35000,-4.39159,-5.29236
26.40000,-4.40012,-5.29689
26.45000,-4.40839,-5.30147
26.50000,-4.41639,-5.30475
26.55000,-4.42506,-5.30942
26.60000,-4.43332,-5.31393
26.65000,-4.44146,-5.31803
26.70000,-4.44999,-5.32162
26.75000,-4.45852,-5.32762
26.80000,-4.46666,-5.32978
26.85000,-4.47492,-5.33471
26.90000,-4.48359,-5.33847
26.95000,-4.49172,-5.34305
27.00000,-4.49999,-5.34626
27.05000,-4.50839,-5.35073
27.10000,-4.51679,-5.35490
27.15000,-4.52506,-5.35838
27.20000,-4.53332,-5.36324
27.25000,-4.54159,-5.36589
27.30000,-4.54999,-5.37124
27.35000,-4.55826,-5.37472
27.40000,-4.56639,-5.37873
27.45000,-4.57492,-5.38228
27.50000,-4.58332,-5.38722
27.55000,-4.59146,-5.39113
27.60000,-4.59999,-5.39531
27.65000,-4.60852,-5.39986
27.70000,-4.61666,-5.40210
27.75000,-4.62492,-5.40451
27.80000,-4.63346,-5.40903
27.85000,-4.64172,-5.41339
27.90000,-4.64986,-5.41700
27.95000,-4.65812,-5.42028
28.00000,-4.66652,-5.42418
28.05000,-4.67479,-5.42784
28.10000,-4.68306,-5.42904
28.15000,-4.69146,-5.43261
28.20000,-4.69972,-5.43564
28.25000,-4.70812,-5.44000
28.30000,-4.71639,-5.44366
28.35000,-4.72492,-5.44809
28.40000,-4.73332,-5.45150
28.45000,-4.74145,-5.45560
28.50000,-4.74999,-5.45855
28.55000,-4.75852,-5.46284
28.60000,-4.76666,-5.46722
28.65000,-4.77492,-5.46970
28.70000,-4.78346,-5.47463
28.75000,-4.79159,-5.47738
28.80000,-4.79959,-5.48100
28.85000,-4.80812,-5.48360
28.90000,-4.81666,-5.48901
28.95000,-4.82479,-5.49168
29.00000,-4.83319,-5.49586
29.05000,-4.84185,-5.49945
29.10000,-4.84999,-5.50377
29.15000,-4.85825,-5.50745
29.20000,-4.86679,-5.51110
29.25000,-4.87519,-5.51476
29.30000,-4.88332,-5.51845
29.35000,-4.89172,-5.52174
29.40000,-4.90012,-5.52591
29.45000,-4.90852,-5.52848
29.50000,-4.91665,-5.53400
29.55000,-4.92479,-5.53544
29.60000,-4.93332,-5.54005
29.65000,-4.94159,-5.54320
29.70000,-4.94972,-5.54777
29.75000,-4.95825,-5.54977
29.80000,-4.96665,-5.55530
29.85000,-4.97465,-5.55747
29.90000,-4.98319,-5.56183
29.95000,-4.99185,-5.56543
30.00000,-4.99999,-5.56930
30.05000,-5.00839,-5.57245
30.10000,-5.01692,-5.57678
30.15000,-5.02519,-5.57957
30.20000,-5.03332,-5.58258
30.25000,-5.04172,-5.58610
30.30000,-5.05012,-5.58842
30.35000,-5.05839,-5.59271
30.40000,-5.06652,-5.59468
30.45000,-5.07465,-5.59848
30.50000,-5.08332,-5.59928
30.55000,-5.09159,-5.60550
30.60000,-5.09959,-5.60521
30.65000,-5.10812,-5.61121
30.70000,-5.11665,-5.61227
30.75000,-5.12465,-5.61845
30.80000,-5.13319,-5.61926
30.85000,-5.14172,-5.62511
30.90000,-5.14985,-5.62734
30.95000,-5.15825,-5.63205
31.00000,-5.16679,-5.63376
31.05000,-5.17505,-5.63625
31.10000,-5.18319,-5.63306
31.15000,-5.19145,-5.63829
31.20000,-5.19985,-5.63755
31.25000,-5.20812,-5.64387
31.30000,-5.21639,-5.64464
31.35000,-5.22479,-5.64968
31.40000,-5.23305,-5.65086
31.45000,-5.24132,-5.65524
31.50000,-5.24972,-5.65831
31.55000,-5.25825,-5.66185
31.60000,-5.26679,-5.66585
31.65000,-5.27492,-5.66914
31.70000,-5.28332,-5.67189
31.75000,-5.29185,-5.67494
31.80000,-5.29999,-5.67838
31.85000,-5.30825,-5.68107
31.90000,-5.31665,-5.68322
31.95000,-5.32505,-5.68758
32.00000,-5.33319,-5.68966
32.05000,-5.34159,-5.69314
32.10000,-5.34999,-5.69665
32.15000,-5.35812,-5.69907
32.20000,-5.36639,-5.70152
32.25000,-5.37505,-5.70614
32.30000,-5.38332,-5.70791
32.35000,-5.39159,-5.71186
32.40000,-5.40012,-5.71410
32.45000,-5.40839,-5.71813
32.50000,-5.41679,-5.72042
32.55000,-5.42519,-5.72392
32.60000,-5.43359,-5.72684
32.65000,-5.44185,-5.73038
32.70000,-5.44999,-5.73264
32.75000,-5.45812,-5.73508
32.80000,-5.46665,-5.73849
32.85000,-5.47505,-5.74186
32.90000,-5.48319,-5.74493
32.95000,-5.49172,-5.74726
33.00000,-5.49999,-5.75189
33.05000,-5.50825,-5.75254
33.10000,-5.51665,-5.75629
33.15000,-5.52519,-5.75942
33.20000,-5.53332,-5.76238
33.25000,-5.54172,-5.76541
33.30000,-5.55025,-5.76889
33.35000,-5.55839,-5.77143
33.40000,-5.56665,-5.77400
33.45000,-5.57505,-5.77689
33.50000,-5.58332,-5.77800
33.55000,-5.59159,-5.78000
33.60000,-5.59985,-5.78296
33.65000,-5.60812,-5.78484
33.70000,-5.61652,-5.78714
33.75000,-5.62492,-5.79116
33.80000,-5.63292,-5.79190
33.85000,-5.64159,-5.79517
33.90000,-5.64999,-5.79825
33.95000,-5.65812,-5.80137
34.00000,-5.66665,-5.80371
34.05000,-5.67519,-5.80702
34.10000,-5.68319,-5.80974
34.15000,-5.69159,-5.81079
34.20000,-5.70025,-5.81436
34.25000,-5.70825,-5.81753
34.30000,-5.71652,-5.81958
34.35000,-5.72492,-5.82116
34.40000,-5.73332,-5.82479
34.45000,-5.74145,-5.82651
34.50000,-5.74985,-5.82991
34.55000,-5.75812,-5.83113
34.60000,-5.76652,-5.83502
34.65000,-5.77479,-5.83648
34.70000,-5.78319,-5.84018
34.75000,-5.79172,-5.84207
34.80000,-5.79999,-5.84635
34.85000,-5.80825,-5.84915
34.90000,-5.81665,-5.85161
34.95000,-5.82505,-5.85361
35.00000,-5.83332,-5.85736
35.05000,-5.84159,-5.85897
35.10000,-5.85012,-5.86203
35.15000,-5.85825,-5.86430
35.20000,-5.86639,-5.86742
35.25000,-5.87492,-5.86948
35.30000,-5.88332,-5.87306
35.35000,-5.89145,-5.87594
35.40000,-5.89972,-5.87814
35.45000,-5.90825,-5.88123
35.50000,-5.91652,-5.88393
35.55000,-5.92479,-5.88660
35.60000,-5.93332,-5.88962
35.65000,-5.94172,-5.89256
35.70000,-5.94999,-5.89438
35.75000,-5.95839,-5.89760
35.80000,-5.96679,-5.89879
35.85000,-5.97505,-5.90226
35.90000,-5.98332,-5.90404
35.95000,-5.99145,-5.90771
36.00000,-5.99999,-5.90862
36.05000,-6.00839,-5.91326
36.10000,-6.01639,-5.91463
36.15000,-6.02505,-5.91753
36.20000,-6.03332,-5.92016
36.25000,-6.04145,-5.92339
36.30000,-6.04999,-5.92570
36.35000,-6.05852,-5.92938
36.40000,-6.06652,-5.93191
36.45000,-6.07492,-5.93450
36.50000,-6.08359,-5.93753
36.55000,-6.09172,-5.94087
36.60000,-6.09998,-5.94229
36.65000,-6.10839,-5.94706
36.70000,-6.11665,-5.94655
36.75000,-6.12479,-5.95134
36.80000,-6.13319,-5.95247
36.85000,-6.14145,-5.95609
36.90000,-6.14998,-5.95733
36.95000,-6.15825,-5.96230
37.00000,-6.16639,-5.96248
37.05000,-6.17505,-5.96656
37.10000,-6.18345,-5.96824
37.15000,-6.19145,-5.97205
37.20000,-6.19998,-5.97226
37.25000,-6.20852,-5.97860
37.30000,-6.21665,-5.97946
37.35000,-6.22492,-5.98185
37.40000,-6.23345,-5.98427
37.45000,-6.24172,-5.98940
37.50000,-6.24998,-5.98858
37.55000,-6.25825,-5.99377
37.60000,-6.26665,-5.99281
37.65000,-6.27478,-6.00020
37.70000,-6.28305,-5.99594
37.75000,-6.29145,-6.00793
37.80000,-6.29972,-5.99971
37.85000,-6.30812,-6.01610
37.90000,-6.31652,-6.00382
37.95000,-6.32492,-6.02094
38.00000,-6.33332,-6.01232
38.05000,-6.34158,-6.02421
38.10000,-6.34998,-6.01862
38.15000,-6.35852,-6.02830
38.20000,-6.36652,-6.02608
38.25000,-6.37478,-6.03156
38.30000,-6.38345,-6.03028
38.35000,-6.39172,-6.04159
38.40000,-6.39985,-6.03355
38.45000,-6.40825,-6.04502
38.50000,-6.41665,-6.04100
38.55000,-6.42478,-6.04959
38.60000,-6.43305,-6.04443
38.65000,-6.44158,-6.05535
38.70000,-6.44985,-6.04869
38.75000,-6.45812,-6.05992
38.80000,-6.46678,-6.05206
38.85000,-6.47505,-6.06842
38.90000,-6.48332,-6.05376
38.95000,-6.49158,-6.07611
39.00000,-6.49998,-6.05762
39.05000,-6.50838,-6.07829
39.10000,-6.51678,-6.06724
39.15000,-6.52492,-6.07953
39.20000,-6.53345,-6.07353
39.25000,-6.54172,-6.08499
39.30000,-6.54972,-6.07852
39.35000,-6.55825,-6.08793
39.40000,-6.56665,-6.08545
39.45000,-6.57478,-6.08869
39.50000,-6.58332,-6.09382
39.55000,-6.59185,-6.09433
39.60000,-6.59985,-6.09600
39.65000,-6.60812,-6.09936
39.70000,-6.61665,-6.10122
39.75000,-6.62492,-6.10215
39.80000,-6.63332,-6.10994
39.85000,-6.64185,-6.10585
39.90000,-6.65012,-6.11847
39.95000,-6.65825,-6.11075
40.00000,-6.66665,-6.11952
40.05000,-6.67492,-6.11780
40.10000,-6.68332,-6.12344
40.15000,-6.69172,-6.12155
40.20000,-6.69985,-6.13154
40.25000,-6.70838,-6.12611
40.30000,-6.71678,-6.13594
40.35000,-6.72492,-6.13430
40.40000,-6.73332,-6.13957
40.45000,-6.74185,-6.13994
40.50000,-6.74985,-6.14547
40.55000,-6.75825,-6.14364
40.60000,-6.76678,-6.15032
40.65000,-6.77492,-6.14986
40.70000,-6.78305,-6.15384
40.75000,-6.79145,-6.15448
40.80000,-6.79972,-6.15944
40.85000,-6.80812,-6.15885
40.90000,-6.81638,-6.16450
40.95000,-6.82478,-6.16401
41.00000,-6.83305,-6.17036
41.05000,-6.84145,-6.17024
41.10000,-6.84972,-6.17289
41.15000,-6.85825,-6.17761
41.20000,-6.86665,-6.17858
41.25000,-6.87492,-6.18301
41.30000,-6.88345,-6.18458
41.35000,-6.89185,-6.18653
41.40000,-6.89998,-6.19216
41.45000,-6.90825,-6.19143
41.50000,-6.91692,-6.19560
41.55000,-6.92505,-6.19960
41.60000,-6.93318,-6.20038
41.65000,-6.94158,-6.20248
41.70000,-6.94998,-6.20702
41.75000,-6.95812,-6.20750
41.80000,-6.96638,-6.21105
41.85000,-6.97492,-6.21116
41.90000,-6.98318,-6.21828
41.95000,-6.99158,-6.21675
42.00000,-7.00012,-6.22313
42.05000,-7.00852,-6.22518
42.10000,-7.01678,-6.22767
42.15000,-7.02505,-6.23001
42.20000,-7.03345,-6.23317
42.25000,-7.04172,-6.23516
42.30000,-7.05012,-6.23880
42.35000,-7.05825,-6.24014
42.40000,-7.06678,-6.24430
42.45000,-7.07492,-6.24587
42.50000,-7.08318,-6.24907
42.55000,-7.09172,-6.25139
42.60000,-7.09985,-6.25283
42.65000,-7.10798,-6.25739
42.70000,-7.11665,-6.25627
42.75000,-7.12518,-6.26486
42.80000,-7.13318,-6.26276
42.85000,-7.14158,-6.26894
42.90000,-7.15012,-6.26828
42.95000,-7.15825,-6.27460
43.00000,-7.16665,-6.27339
43.05000,-7.17518,-6.27982
43.10000,-7.18345,-6.27949
43.15000,-7.19158,-6.28330
43.20000,-7.19998,-6.28345
43.25000,-7.20825,-6.28882
43.30000,-7.21665,-6.28820
43.35000,-7.22492,-6.29344
43.40000,-7.23305,-6.29283
43.45000,-7.24172,-6.29743
43.50000,-7.24998,-6.29900
43.55000,-7.25812,-6.30332
43.60000,-7.26665,-6.30421
43.65000,-7.27505,-6.30769
43.70000,-7.28318,-6.31084
43.75000,-7.29158,-6.31329
43.80000,-7.30012,-6.31558
43.85000,-7.30825,-6.31968
43.90000,-7.31652,-6.32027
43.95000,-7.32492,-6.32557
44.00000,-7.33318,-6.32660
44.05000,-7.34145,-6.33084
44.10000,-7.34972,-6.33231
44.15000,-7.35812,-6.33614
44.20000,-7.36625,-6.33711
44.25000,-7.37465,-6.34130
44.30000,-7.38305,-6.34324
44.35000,-7.39158,-6.34786
44.40000,-7.39998,-6.34960
44.45000,-7.40825,-6.35408
44.50000,-7.41678,-6.35430
44.55000,-7.42518,-6.36019
44.60000,-7.43318,-6.36038
44.65000,-7.44145,-6.36311
44.70000,-7.44998,-6.36577
44.75000,-7.45825,-6.36992
44.80000,-7.46638,-6.37169
44.85000,-7.47492,-6.37545
44.90000,-7.48332,-6.37882
44.95000,-7.49145,-6.38153
45.00000,-7.49971,-6.38356
45.05000,-7.50838,-6.38720
45.10000,-7.51665,-6.39016
45.15000,-7.52492,-6.39353
45.20000,-7.53332,-6.39638
45.25000,-7.54171,-6.40010
45.30000,-7.54998,-6.40319
45.35000,-7.55851,-6.40625
45.40000,-7.56678,-6.40913
45.45000,-7.57505,-6.41236
45.50000,-7.58345,-6.41600
45.55000,-7.59158,-6.41685
45.60000,-7.60011,-6.42111
45.65000,-7.60838,-6.42488
45.70000,-7.61651,-6.42814
45.75000,-7.62505,-6.42805
45.80000,-7.63331,-6.43491
45.85000,-7.64145,-6.43528
45.90000,-7.64998,-6.43760
45.95000,-7.65851,-6.44157
46.00000,-7.66665,-6.44511
46.05000,-7.67505,-6.44509
46.10000,-7.68358,-6.45062
46.15000,-7.69171,-6.45211
46.20000,-7.69998,-6.45499
46.25000,-7.70838,-6.45642
46.30000,-7.71665,-6.46039
46.35000,-7.72491,-6.46155
46.40000,-7.73331,-6.46391
46.45000,-7.74171,-6.46774
46.50000,-7.75011,-6.46748
46.55000,-7.75825,-6.47212
46.60000,-7.76638,-6.47249
46.65000,-7.77491,-6.47478
46.70000,-7.78331,-6.47794
46.75000,-7.79145,-6.47944
46.80000,-7.79998,-6.48238
46.85000,-7.80851,-6.48551
46.90000,-7.81665,-6.48772
46.95000,-7.82491,-6.49081
47.00000,-7.83345,-6.49132
47.05000,-7.84158,-6.49481
47.10000,-7.84985,-6.49713
47.15000,-7.85825,-6.50114
47.20000,-7.86665,-6.49748
47.25000,-7.87478,-6.50805
47.30000,-7.88318,-6.50417
47.35000,-7.89158,-6.51180
47.40000,-7.89985,-6.50995
47.45000,-7.90811,-6.51876
47.50000,-7.91651,-6.51545
47.55000,-7.92505,-6.52509
47.60000,-7.93331,-6.52283
47.65000,-7.94145,-6.52945
47.70000,-7.94998,-6.52861
47.75000,-7.95838,-6.53673
47.80000,-7.96665,-6.53622
47.85000,-7.97491,-6.54056
47.90000,-7.98345,-6.54352
47.95000,-7.99171,-6.54666
48.00000,-7.99985,-6.54836
48.05000,-8.00838,-6.55188
48.10000,-8.01665,-6.55645
48.15000,-8.02478,-6.55600
48.20000,-8.03305,-6.56150
48.25000,-8.04171,-6.56184
48.30000,-8.04985,-6.56874
48.35000,-8.05811,-6.56983
48.40000,-8.06665,-6.57219
48.45000,-8.07491,-6.57897
48.50000,-8.08331,-6.57639
48.55000,-8.09158,-6.58574
48.60000,-8.09998,-6.58444
48.65000,-8.10825,-6.58648
48.70000,-8.11651,-6.59477
48.75000,-8.12465,-6.58882
48.80000,-8.13331,-6.59881
48.85000,-8.14171,-6.59914
48.90000,-8.14971,-6.60504
48.95000,-8.15838,-6.60240
49.00000,-8.16651,-6.61403
49.05000,-8.17478,-6.60586
49.10000,-8.18331,-6.62013
49.15000,-8.19185,-6.61090
49.20000,-8.19998,-6.63037
49.25000,-8.20838,-6.61249
49.30000,-8.21691,-6.63668
49.35000,-8.22505,-6.61736
49.40000,-8.23331,-6.64333
49.45000,-8.24171,-6.62452
49.50000,-8.24998,-6.64680
49.55000,-8.25825,-6.63144
49.60000,-8.26651,-6.65358
49.65000,-8.27491,-6.63370
49.70000,-8.28345,-6.65912
49.75000,-8.29171,-6.64810
49.80000,-8.29985,-6.65819
49.85000,-8.30838,-6.65352
49.90000,-8.31678,-6.66407
49.95000,-8.32478,-6.66134
50.00000,-8.33331,-6.66803
50.05000,-8.34185,-6.66694
50.10000,-8.34985,-6.67612
50.15000,-8.35825,-6.66988
50.20000,-8.36691,-6.67939
50.25000,-8.37491,-6.68539
50.30000,-8.38318,-6.67728
50.35000,-8.39158,-6.69202
50.40000,-8.39985,-6.68422
50.45000,-8.40811,-6.69787
50.50000,-8.41651,-6.69146
50.55000,-8.42478,-6.69881
50.60000,-8.43318,-6.70126
50.65000,-8.44145,-6.70543
50.70000,-8.44985,-6.70468
50.75000,-8.45825,-6.71066
50.80000,-8.46665,-6.71447
50.85000,-8.47491,-6.71304
50.90000,-8.48331,-6.72157
50.95000,-8.49171,-6.71902
51.00000,-8.49985,-6.72922
51.05000,-8.50811,-6.72191
51.10000,-8.51678,-6.73636
51.15000,-8.52491,-6.72800
51.20000,-8.53318,-6.74304
51.25000,-8.54158,-6.72706
51.30000,-8.54998,-6.75850
51.35000,-8.55811,-6.73085
51.40000,-8.56638,-6.75831
51.45000,-8.57505,-6.74332
51.50000,-8.58331,-6.76474
51.55000,-8.59145,-6.74982
51.60000,-8.59998,-6.76989
51.65000,-8.60838,-6.76024
51.70000,-8.61678,-6.77087
51.75000,-8.62518,-6.77176
51.80000,-8.63345,-6.77086
51.85000,-8.64171,-6.78582
51.90000,-8.64998,-6.77282
51.95000,-8.65825,-6.79179
52.00000,-8.66665,-6.77723
52.05000,-8.67491,-6.80268
52.10000,-8.68305,-6.78062
52.15000,-8.69158,-6.80689
52.20000,-8.69998,-6.79059
52.25000,-8.70811,-6.81107
52.30000,-8.71665,-6.79603
52.35000,-8.72505,-6.81720
52.40000,-8.73331,-6.81079
52.45000,-8.74158,-6.81707
52.50000,-8.75025,-6.81901
52.55000,-8.75838,-6.82452
52.60000,-8.76651,-6.82957
52.65000,-8.77491,-6.82475
52.70000,-8.78331,-6.84154
52.75000,-8.79158,-6.82927
52.80000,-8.79998,-6.84653
52.85000,-8.80824,-6.84014
52.90000,-8.81665,-6.85085
52.95000,-8.82491,-6.85004
53.00000,-8.83305,-6.85638
53.05000,-8.84171,-6.85337
53.10000,-8.84998,-6.86624
53.15000,-8.85811,-6.86036
53.20000,-8.86665,-6.87246
53.25000,-8.87518,-6.86502
53.30000,-8.88331,-6.87920
53.35000,-8.89158,-6.87455
53.40000,-8.90011,-6.88327
53.45000,-8.90838,-6.87903
53.50000,-8.91651,-6.88988
53.55000,-8.92491,-6.88897
53.60000,-8.93318,-6.89050
53.65000,-8.94144,-6.89820
53.70000,-8.94971,-6.89346
53.75000,-8.95811,-6.90381
53.80000,-8.96638,-6.90082
53.85000,-8.97478,-6.90870
53.90000,-8.98318,-6.90653
53.95000,-8.99171,-6.91700
54.00000,-8.99998,-6.91267
54.05000,-9.00824,-6.92517
54.10000,-9.01665,-6.91562
54.15000,-9.02518,-6.93612
54.20000,-9.03331,-6.92036
54.25000,-9.04158,-6.93954
54.30000,-9.05011,-6.92793
54.35000,-9.05824,-6.94655
54.40000,-9.06638,-6.93277
54.45000,-9.07491,-6.94994
54.50000,-9.08331,-6.94049
54.55000,-9.09144,-6.95556
54.60000,-9.09984,-6.94486
54.65000,-9.10838,-6.96295
54.70000,-9.11651,-6.95053
54.75000,-9.12478,-6.97167
54.80000,-9.13331,-6.95617
54.85000,-9.14171,-6.97654
54.90000,-9.15011,-6.96514
54.95000,-9.15838,-6.98180
55.00000,-9.16678,-6.97134
55.05000,-9.17518,-6.98653
55.10000,-9.18344,-6.97953
55.15000,-9.19158,-6.99189
55.20000,-9.20011,-6.98332
55.25000,-9.20838,-6.99800
55.30000,-9.21651,-6.99032
55.35000,-9.22504,-7.00016
55.40000,-9.23318,-6.99790
55.45000,-9.24131,-7.00297
55.50000,-9.24998,-7.00386
55.55000,-9.25864,-7.00826
55.60000,-9.26664,-7.01209
55.65000,-9.27491,-7.01206
55.70000,-9.28344,-7.01464
55.75000,-9.29158,-7.01901
55.80000,-9.29998,-7.01882
55.85000,-9.30838,-7.02179
55.90000,-9.31664,-7.02558
55.95000,-9.32491,-7.02467
56.00000,-9.33318,-7.03072
56.05000,-9.34144,-7.02864
56.10000,-9.34998,-7.03487
56.15000,-9.35824,-7.03149
56.20000,-9.36638,-7.03837
56.25000,-9.37504,-7.03456
56.30000,-9.38331,-7.04063
56.35000,-9.39144,-7.04003
56.40000,-9.39998,-7.04334
56.45000,-9.40851,-7.04441
56.50000,-9.41664,-7.04768
56.55000,-9.42491,-7.04891
56.60000,-9.43344,-7.04736
56.65000,-9.44158,-7.05347
56.70000,-9.44984,-7.05192
56.75000,-9.45824,-7.05360
56.80000,-9.46664,-7.05721
56.85000,-9.47491,-7.05777
56.90000,-9.48318,-7.06005
56.95000,-9.49144,-7.06128
57.00000,-9.49971,-7.06239
57.05000,-9.50811,-7.06546
57.10000,-9.51638,-7.06712
57.15000,-9.52491,-7.06806
57.20000,-9.53331,-7.07112
57.25000,-9.54158,-7.07351
57.30000,-9.54998,-7.07206
57.35000,-9.55838,-7.07625
57.40000,-9.56664,-7.07748
57.45000,-9.57478,-7.07821
57.50000,-9.58344,-7.07842
57.55000,-9.59171,-7.08301
57.60000,-9.59971,-7.08208
57.65000,-9.60824,-7.08565
57.70000,-9.61678,-7.08660
57.75000,-9.62491,-7.08898
57.80000,-9.63304,-7.09068
57.85000,-9.64171,-7.09216
57.90000,-9.64998,-7.09600
57.95000,-9.65824,-7.09718
58.00000,-9.66678,-7.10080
58.05000,-9.67504,-7.10322
58.10000,-9.68331,-7.10524
58.15000,-9.69171,-7.10946
58.20000,-9.70011,-7.10881
58.25000,-9.70851,-7.11401
58.30000,-9.71678,-7.11535
58.35000,-9.72491,-7.11645
58.40000,-9.73344,-7.11926
58.45000,-9.74171,-7.12288
58.50000,-9.74971,-7.12213
58.55000,-9.75824,-7.12508
58.60000,-9.76664,-7.12852
58.65000,-9.77478,-7.12990
58.70000,-9.78331,-7.13125
58.75000,-9.79184,-7.13688
58.80000,-9.79998,-7.13608
58.85000,-9.80824,-7.14031
58.90000,-9.81678,-7.14147
58.95000,-9.82504,-7.14464
59.00000,-9.83331,-7.14553
59.05000,-9.84184,-7.14966
59.10000,-9.85011,-7.14832
59.15000,-9.85838,-7.15155
59.20000,-9.86664,-7.15326
59.25000,-9.87491,-7.15558
59.30000,-9.88331,-7.15506
59.35000,-9.89158,-7.16083
59.40000,-9.89958,-7.15940
59.45000,-9.90824,-7.16227
59.50000,-9.91664,-7.16428
59.55000,-9.92478,-7.16751
59.60000,-9.93331,-7.16658
59.65000,-9.94171,-7.17146
59.70000,-9.94984,-7.17146
59.75000,-9.95824,-7.17461
59.80000,-9.96678,-7.17493
59.85000,-9.97504,-7.18004
59.90000,-9.98331,-7.17907
59.95000,-9.99158,-7.18367
60.00000,-9.99998,-7.18454
60.05000,-10.00811,-7.18720
60.10000,-10.01638,-7.18854
60.15000,-10.02478,-7.19079
60.20000,-10.03318,-7.19265
60.25000,-10.04144,-7.19511
60.30000,-10.04971,-7.19790
60.35000,-10.05824,-7.19898
60.40000,-10.06664,-7.20318
60.45000,-10.07491,-7.20505
60.50000,-10.08318,-7.20607
60.55000,-10.09171,-7.20848
60.60000,-10.09984,-7.21129
60.65000,-10.10811,-7.21184
60.70000,-10.11678,-7.21436
60.75000,-10.12504,-7.21779
60.80000,-10.13318,-7.21972
60.85000,-10.14158,-7.22228
60.90000,-10.15011,-7.22473
60.95000,-10.15811,-7.22728
61.00000,-10.16637,-7.22912
61.05000,-10.17504,-7.23140
61.10000,-10.18331,-7.23422
61.15000,-10.19144,-7.23613
61.20000,-10.20011,-7.23867
61.25000,-10.20851,-7.24068
61.30000,-10.21678,-7.24412
61.35000,-10.22504,-7.24604
61.40000,-10.23344,-7.24734
61.45000,-10.24171,-7.24981
61.50000,-10.24998,-7.25335
61.55000,-10.25824,-7.25332
61.60000,-10.26678,-7.25690
61.65000,-10.27491,-7.25845
61.70000,-10.28304,-7.26083
61.75000,-10.29158,-7.26158
61.80000,-10.29998,-7.26626
61.85000,-10.30798,-7.26559
61.90000,-10.31664,-7.26941
61.95000,-10.32517,-7.27181
62.00000,-10.33331,-7.27492
62.05000,-10.34157,-7.27480
62.10000,-10.35024,-7.27906
62.15000,-10.35837,-7.28004
62.20000,-10.36664,-7.28248
62.25000,-10.37504,-7.28377
62.30000,-10.38344,-7.28624
62.35000,-10.39171,-7.28705
62.40000,-10.39997,-7.28996
62.45000,-10.40824,-7.29051
62.50000,-10.41664,-7.29348
62.55000,-10.42491,-7.29444
62.60000,-10.43304,-7.29598
62.65000,-10.44171,-7.29820
62.70000,-10.45011,-7.30184
62.75000,-10.45811,-7.30233
62.80000,-10.46664,-7.30428
62.85000,-10.47517,-7.30649
62.90000,-10.48317,-7.30902
62.95000,-10.49144,-7.30937
63.00000,-10.50011,-7.31175
63.05000,-10.50824,-7.31420
63.10000,-10.51651,-7.31500
63.15000,-10.52491,-7.31622
63.20000,-10.53317,-7.31838
63.25000,-10.54144,-7.32065
63.30000,-10.54984,-7.32289
63.35000,-10.55811,-7.32438
63.40000,-10.56637,-7.32616
63.45000,-10.57477,-7.32848
63.50000,-10.58304,-7.33084
63.55000,-10.59157,-7.33153
63.60000,-10.59997,-7.33508
63.65000,-10.60811,-7.33710
63.70000,-10.61664,-7.33807
63.75000,-10.62504,-7.34155
63.80000,-10.63331,-7.34420
63.85000,-10.64157,-7.34482
63.90000,-10.65011,-7.34707
63.95000,-10.65837,-7.34990
64.00000,-10.66651,-7.35016
64.05000,-10.67491,-7.35145
64.10001,-10.68331,-7.35531
64.15000,-10.69144,-7.35593
64.20000,-10.69971,-7.35779
64.25000,-10.70837,-7.36095
64.30000,-10.71664,-7.36322
64.35001,-10.72491,-7.36562
64.40000,-10.73331,-7.36809
64.45000,-10.74171,-7.36994
64.50000,-10.74997,-7.37262
64.55000,-10.75824,-7.37565
64.60001,-10.76664,-7.37687
64.65000,-10.77504,-7.37972
64.70000,-10.78331,-7.38337
64.75000,-10.79144,-7.38473
64.80000,-10.80011,-7.38732
64.85001,-10.80837,-7.39107
64.90000,-10.81637,-7.39260
64.95000,-10.82491,-7.39372
65.00000,-10.83331,-7.39660
65.05000,-10.84144,-7.39937
65.10001,-10.84984,-7.40056
65.15000,-10.85851,-7.40303
65.20000,-10.86664,-7.40619
65.25000,-10.87491,-7.40812
65.30000,-10.88344,-7.40981
65.35001,-10.89171,-7.41325
65.40000,-10.89997,-7.41422
65.45000,-10.90824,-7.41650
65.50000,-10.91664,-7.41772
65.55000,-10.92504,-7.42137
65.60001,-10.93331,-7.42296
65.65000,-10.94157,-7.42547
65.70001,-10.95011,-7.42765
65.75000,-10.95837,-7.43017
65.80000,-10.96637,-7.43164
65.85001,-10.97504,-7.43401
65.90000,-10.98344,-7.43689
65.95001,-10.99157,-7.43906
66.00000,-10.99997,-7.44003
66.05000,-11.00851,-7.44432
66.10001,-11.01664,-7.44605
66.15000,-11.02491,-7.44771
66.20001,-11.03357,-7.45024
66.25000,-11.04171,-7.45353
66.30000,-11.04984,-7.45462
66.35001,-11.05824,-7.45615
66.40000,-11.06651,-7.45921
66.45001,-11.07477,-7.45950
66.50000,-11.08304,-7.46297
66.55000,-11.09144,-7.46528
66.60001,-11.09984,-7.46697
66.65000,-11.10811,-7.46983
66.70001,-11.11651,-7.47324
66.75000,-11.12504,-7.47397
66.80000,-11.13331,-7.47825
66.85001,-11.14144,-7.48059
66.90000,-11.14984,-7.48190
66.95001,-11.15851,-7.48575
67.00000,-11.16651,-7.48881
67.05000,-11.17491,-7.48952
67.10001,-11.18331,-7.49238
67.15000,-11.19171,-7.49491
67.20001,-11.19984,-7.49621
67.25000,-11.20824,-7.49889
67.30000,-11.21664,-7.50265
67.35001,-11.22477,-7.50385
67.40000,-11.23317,-7.50628
67.45001,-11.24171,-7.51047
67.50000,-11.24997,-7.51269
67.55000,-11.25824,-7.51526
67.60001,-11.26664,-7.51813
67.65000,-11.27504,-7.52114
67.70001,-11.28344,-7.52406
67.75000,-11.29171,-7.52670
67.80000,-11.29997,-7.52879
67.85001,-11.30837,-7.53190
67.90000,-11.31677,-7.53506
67.95001,-11.32491,-7.53569
68.00000,-11.33344,-7.53975
68.05000,-11.34171,-7.54234
68.10001,-11.34971,-7.54314
68.15000,-11.35824,-7.54360
68.20001,-11.36651,-7.54794
68.25000,-11.37464,-7.54906
68.30000,-11.38331,-7.55143
68.35001,-11.39184,-7.55451
68.40000,-11.39984,-7.55730
68.45001,-11.40824,-7.55836
68.50000,-11.41677,-7.56092
68.55000,-11.42491,-7.56239
68.60001,-11.43331,-7.56480
68.65000,-11.44171,-7.56683
68.70001,-11.45011,-7.56846
68.75000,-11.45837,-7.57049
68.80000,-11.46677,-7.57377
68.85001,-11.47517,-7.57554
68.90000,-11.48344,-7.57726
68.95001,-11.49171,-7.57908
69.00000,-11.49971,-7.57991
69.05000,-11.50824,-7.58083
69.10001,-11.51677,-7.58428
69.15000,-11.52477,-7.58629
69.20001,-11.53331,-7.58745
69.25000,-11.54184,-7.59079
69.30000,-11.54984,-7.59318
69.35001,-11.55824,-7.59417
69.40000,-11.56691,-7.59648
69.45001,-11.57491,-7.59885
69.50000,-11.58304,-7.59980
69.55000,-11.59157,-7.60233
69.60001,-11.59970,-7.60457
69.65000,-11.60797,-7.60543
69.70001,-11.61637,-7.60855
69.75000,-11.62477,-7.61140
69.80000,-11.63317,-7.61183
69.85001,-11.64157,-7.61546
69.90000,-11.64970,-7.61668
69.95001,-11.65824,-7.61818
70.00000,-11.66650,-7.62083
70.05000,-11.67477,-7.62357
70.10001,-11.68317,-7.62409
70.15000,-11.69171,-7.62670
70.20001,-11.69984,-7.62919
70.25000,-11.70824,-7.63029
70.30000,-11.71677,-7.63270
70.35001,-11.72504,-7.63529
70.40000,-11.73317,-7.63539
70.45001,-11.74157,-7.63766
70.50000,-11.74997,-7.63893
70.55000,-11.75797,-7.63948
70.60001,-11.76637,-7.64057
70.65000,-11.77504,-7.64525
70.70001,-11.78330,-7.64667
70.75000,-11.79170,-7.64934
70.80000,-11.80010,-7.65113
70.85001,-11.80837,-7.65312
70.90000,-11.81664,-7.65451
70.95001,-11.82504,-7.65727
71.00000,-11.83344,-7.65721
71.05000,-11.84184,-7.66065
71.10001,-11.85010,-7.66088
71.15000,-11.85824,-7.66260
71.20001,-11.86677,-7.66171
71.25000,-11.87504,-7.66574
71.30000,-11.88317,-7.66489
71.35001,-11.89170,-7.66768
71.40000,-11.89997,-7.66837
71.45001,-11.90810,-7.67093
71.50000,-11.91664,-7.67045
71.55000,-11.92517,-7.67505
71.60001,-11.93330,-7.67571
71.65000,-11.94170,-7.67786
71.70001,-11.95024,-7.68001
71.75000,-11.95837,-7.68168
71.80000,-11.96664,-7.68316
71.85001,-11.97504,-7.68398
71.90000,-11.98344,-7.68666
71.95001,-11.99170,-7.68753
72.00000,-11.99997,-7.68977
72.05000,-12.00810,-7.68993
72.10001,-12.01664,-7.69128
72.15000,-12.02490,-7.69285
72.20001,-12.03304,-7.69438
72.25000,-12.04157,-7.69504
72.30000,-12.04997,-7.69961
72.35001,-12.05810,-7.69960
72.40000,-12.06650,-7.70098
72.45001,-12.07517,-7.70288
72.50000,-12.08317,-7.70607
72.55000,-12.09157,-7.70558
72.60001,-12.10010,-7.70788
72.65000,-12.10837,-7.71093
72.70001,-12.11650,-7.71172
72.75000,-12.12490,-7.71267
72.80000,-12.13317,-7.71406
72.85001,-12.14157,-7.71641
72.90000,-12.14984,-7.71707
72.95001,-12.15797,-7.71976
73.00000,-12.16637,-7.71939
73.05000,-12.17464,-7.72320
73.10001,-12.18304,-7.72561
73.15000,-12.19157,-7.72283
73.20001,-12.19997,-7.73277
73.25000,-12.20824,-7.72858
73.30000,-12.21664,-7.73450
73.35001,-12.22517,-7.73386
73.40000,-12.23330,-7.73991
73.45001,-12.24144,-7.73734
73.50000,-12.25010,-7.74078
73.55000,-12.25824,-7.74263
73.60001,-12.26650,-7.74418
73.65000,-12.27504,-7.74553
73.70001,-12.28330,-7.75002
73.75000,-12.29144,-7.74923
73.80000,-12.29984,-7.75347
73.85001,-12.30837,-7.75510
73.90000,-12.31650,-7.75792
73.95001,-12.32490,-7.75888
74.00000,-12.33330,-7.76189
74.05000,-12.34170,-7.76391
74.10001,-12.34997,-7.76511
74.15000,-12.35837,-7.76941
74.20001,-12.36677,-7.77040
74.25000,-12.37517,-7.76936
74.30000,-12.38344,-7.78173
74.35001,-12.39170,-7.76904
74.40000,-12.40010,-7.78514
74.45001,-12.40837,-7.77601
74.50000,-12.41650,-7.78593
74.55000,-12.42504,-7.77998
74.60001,-12.43330,-7.79126
74.65000,-12.44144,-7.78385
74.70001,-12.44997,-7.79610
74.75000,-12.45850,-7.78872
74.80000,-12.46650,-7.80223
74.85001,-12.47490,-7.79036
74.90000,-12.48344,-7.80626
74.95001,-12.49157,-7.79636
75.00000,-12.49997,-7.80732
75.05000,-12.50837,-7.80219
75.10001,-12.51664,-7.80932
75.15000,-12.52490,-7.80632
75.20001,-12.53330,-7.81250
75.25000,-12.54157,-7.80632
75.30000,-12.54997,-7.81590
75.35001,-12.55824,-7.81165
75.40000,-12.56650,-7.81709
75.45001,-12.57504,-7.81267
75.50000,-12.58317,-7.82078
75.55000,-12.59130,-7.81778
75.60001,-12.59997,-7.82065
75.65000,-12.60850,-7.82306
75.70001,-12.61650,-7.82507
75.75000,-12.62490,-7.82428
75.80000,-12.63357,-7.82588
75.85001,-12.64157,-7.82872
75.90000,-12.64997,-7.82701
75.95001,-12.65837,-7.83157
76.00000,-12.66664,-7.83009
76.05000,-12.67477,-7.83435
76.10001,-12.68304,-7.82580
76.15000,-12.69144,-7.84393
76.20001,-12.69984,-7.82214
76.25000,-12.70824,-7.85066
76.30000,-12.71650,-7.82833
76.35001,-12.72490,-7.85014
76.40000,-12.73330,-7.83252
76.45001,-12.74144,-7.85417
76.50000,-12.74984,-7.83320
76.55000,-12.75837,-7.85787
76.60001,-12.76650,-7.83938
76.65000,-12.77477,-7.86196
76.70001,-12.78344,-7.84116
76.75000,-12.79157,-7.86579
76.80000,-12.79970,-7.84754
76.85001,-12.80824,-7.86437
76.90000,-12.81663,-7.85385
76.95001,-12.82477,-7.86456
77.00000,-12.83304,-7.85592
77.05000,-12.84170,-7.86847
77.10001,-12.84997,-7.86261
77.15000,-12.85824,-7.87043
77.20001,-12.86677,-7.86777
77.25000,-12.87504,-7.87396
77.30000,-12.88344,-7.87109
77.35001,-12.89170,-7.87821
77.40000,-12.90010,-7.87578
77.45001,-12.90837,-7.88146
77.50000,-12.91663,-7.88078
77.55000,-12.92490,-7.88361
77.60001,-12.93343,-7.88429
77.65000,-12.94157,-7.88769
77.70001,-12.94984,-7.88845
77.75000,-12.95837,-7.88945
77.80000,-12.96663,-7.89374
77.85001,-12.97477,-7.89323
77.90000,-12.98330,-7.89771
77.95001,-12.99184,-7.89859
78.00000,-12.99997,-7.90242
78.05000,-13.00824,-7.89977
78.10001,-13.01690,-7.90720
78.15000,-13.02504,-7.90502
78.20001,-13.03330,-7.90940
78.25000,-13.04184,-7.90968
78.30000,-13.04997,-7.91300
78.35001,-13.05823,-7.91245
78.40000,-13.06663,-7.91464
78.45001,-13.07490,-7.91587
78.50000,-13.08330,-7.91679
78.55000,-13.09170,-7.91903
78.60001,-13.09983,-7.92150
78.65000,-13.10837,-7.92043
78.70001,-13.11677,-7.92551
78.75000,-13.12477,-7.92394
78.80000,-13.13330,-7.92635
78.85001,-13.14170,-7.92883
78.90000,-13.14983,-7.93091
78.95001,-13.15823,-7.92977
79.00000,-13.16677,-7.93383
79.05000,-13.17490,-7.93298
79.10001,-13.18317,-7.93614
79.15000,-13.19157,-7.93538
79.20001,-13.19983,-7.93765
79.25000,-13.20810,-7.93803
79.30000,-13.21650,-7.94006
79.35001,-13.22490,-7.94263
79.40000,-13.23317,-7.94273
79.45001,-13.24143,-7.94716
79.50000,-13.24983,-7.94721
79.55000,-13.25823,-7.95036
79.60001,-13.26663,-7.95336
79.65000,-13.27477,-7.95540
79.70001,-13.28317,-7.95632
79.75000,-13.29170,-7.95981
79.80000,-13.29983,-7.96302
79.85001,-13.30823,-7.96540
79.90000,-13.31677,-7.96548
79.95001,-13.32490,-7.97152
80.00000,-13.33317,-7.97002
80.05000,-13.34157,-7.97502
80.10001,-13.34983,-7.97721
80.15000,-13.35797,-7.97821
80.20001,-13.36637,-7.97845
80.25000,-13.37503,-7.98764
80.30000,-13.38330,-7.98426
80.35001,-13.39170,-7.99177
80.40000,-13.40010,-7.99032
80.45001,-13.40823,-7.99440
80.50001,-13.41663,-7.99488
80.55000,-13.42503,-7.99929
80.60001,-13.43343,-7.99901
80.65000,-13.44183,-8.00443
80.70001,-13.45023,-8.00487
80.75001,-13.45837,-8.00818
80.80000,-13.46677,-8.00757
80.85001,-13.47503,-8.01258
80.90000,-13.48303,-8.00949
80.95001,-13.49170,-8.01511
81.00001,-13.49997,-8.01677
81.05000,-13.50810,-8.01804
81.10001,-13.51677,-8.02195
81.15000,-13.52517,-8.02326
81.20001,-13.53330,-8.02968
81.25001,-13.54170,-8.02640
81.30000,-13.55023,-8.03418
81.35001,-13.55837,-8.03242
81.40000,-13.56677,-8.03834
81.45001,-13.57517,-8.03804
81.50001,-13.58343,-8.04210
81.55000,-13.59170,-8.04184
81.60001,-13.59997,-8.04716
81.65000,-13.60823,-8.04688
81.70001,-13.61663,-8.05069
81.75001,-13.62503,-8.05401
81.80000,-13.63303,-8.05455
81.85001,-13.64170,-8.05909
81.90000,-13.65010,-8.06204
81.95001,-13.65810,-8.06657
82.00001,-13.66663,-8.06706
82.05000,-13.67517,-8.07343
82.10001,-13.68317,-8.07434
82.15000,-13.69157,-8.07804
82.20001,-13.70010,-8.07814
82.25001,-13.70823,-8.08607
82.30000,-13.71650,-8.08371
82.35001,-13.72490,-8.09038
82.40000,-13.73303,-8.08871
82.45001,-13.74130,-8.09327
82.50001,-13.74970,-8.09381
82.55000,-13.75810,-8.09929
82.60001,-13.76637,-8.09918
82.65000,-13.77463,-8.10394
82.70001,-13.78290,-8.10769
82.75001,-13.79157,-8.10735
82.80000,-13.79997,-8.11210
82.85001,-13.80810,-8.11553
82.90000,-13.81650,-8.11780
82.95001,-13.82503,-8.12135
83.00001,-13.83330,-8.12503
83.05000,-13.84157,-8.12587
83.10001,-13.85010,-8.12781
83.15000,-13.85823,-8.13217
83.20001,-13.86650,-8.13169
83.25001,-13.87490,-8.13721
83.30000,-13.88330,-8.13869
83.35001,-13.89143,-8.14283
83.40000,-13.89970,-8.14214
83.45001,-13.90837,-8.15054
83.50001,-13.91650,-8.14805
83.55000,-13.92490,-8.15665
83.60001,-13.93343,-8.15465
83.65000,-13.94170,-8.16366
83.70001,-13.95010,-8.16141
83.75001,-13.95850,-8.17077
83.80000,-13.96677,-8.16588
83.85001,-13.97517,-8.17587
83.90000,-13.98343,-8.17465
83.95001,-13.99157,-8.17995
84.00001,-14.00023,-8.17962
84.05000,-14.00837,-8.18945
84.10001,-14.01650,-8.18435
84.15000,-14.02490,-8.19227
84.20001,-14.03330,-8.18968
84.25001,-14.04143,-8.19766
84.30000,-14.04997,-8.19532
84.35001,-14.05850,-8.20432
84.40000,-14.06650,-8.20415
84.45001,-14.07477,-8.20903
84.50001,-14.08343,-8.20941
84.55000,-14.09157,-8.21656
84.60001,-14.09997,-8.21632
84.65000,-14.10850,-8.22405
84.70001,-14.11677,-8.22459
84.75001,-14.12503,-8.22760
84.80000,-14.13330,-8.22873
84.85001,-14.14157,-8.23476
84.90000,-14.14997,-8.23403
84.95001,-14.15823,-8.24209
85.00001,-14.16623,-8.23911
85.05000,-14.17490,-8.24735
85.10001,-14.18330,-8.24714
85.15000,-14.19143,-8.25650
85.20001,-14.19997,-8.25222
85.25001,-14.20850,-8.26282
85.30000,-14.21650,-8.25971
85.35001,-14.22476,-8.26616
85.40000,-14.23343,-8.26511
85.45001,-14.24157,-8.27357
85.50001,-14.24983,-8.26946
85.55000,-14.25823,-8.27688
85.60001,-14.26650,-8.27545
85.65000,-14.27463,-8.28099
85.70001,-14.28317,-8.28151
85.75001,-14.29143,-8.28823
85.80000,-14.29983,-8.28776
85.85001,-14.30810,-8.29319
85.90000,-14.31637,-8.29621
85.95001,-14.32490,-8.29893
86.00001,-14.33343,-8.30464
86.05000,-14.34156,-8.30844
86.10001,-14.34997,-8.31293
86.15000,-14.35836,-8.31511
86.20001,-14.36650,-8.32255
86.25001,-14.37490,-8.32193
86.30000,-14.38343,-8.32897
86.35001,-14.39170,-8.33175
86.40000,-14.39970,-8.33643
86.45001,-14.40823,-8.33683
86.50001,-14.41663,-8.34615
86.55000,-14.42476,-8.34536
86.60001,-14.43303,-8.35178
86.65000,-14.44170,-8.35533
86.70001,-14.44996,-8.36201
86.75001,-14.45823,-8.36446
86.80000,-14.46676,-8.37181
86.85001,-14.47503,-8.37505
86.90000,-14.48330,-8.38063
86.95001,-14.49170,-8.38501
87.00001,-14.50010,-8.38919
87.05000,-14.50836,-8.39353
87.10001,-14.51663,-8.39756
87.15000,-14.52476,-8.40020
87.20001,-14.53343,-8.40363
87.25001,-14.54156,-8.41070
87.30000,-14.54970,-8.41101
87.35001,-14.55836,-8.41745
87.40000,-14.56650,-8.42096
87.45001,-14.57463,-8.42430
87.50001,-14.58330,-8.42897
87.55000,-14.59196,-8.43455
87.60001,-14.59996,-8.43992
87.65000,-14.60836,-8.44262
87.70001,-14.61690,-8.44897
87.75001,-14.62503,-8.45291
87.80000,-14.63330,-8.45430
87.85001,-14.64183,-8.46132
87.90000,-14.65010,-8.46159
87.95001,-14.65836,-8.46979
88.00001,-14.66663,-8.46959
88.05000,-14.67476,-8.47622
88.10001,-14.68316,-8.47771
88.15000,-14.69156,-8.48348
88.20001,-14.69956,-8.48477
88.25001,-14.70823,-8.48907
88.30000,-14.71663,-8.49485
88.35001,-14.72476,-8.50012
88.40000,-14.73316,-8.50167
88.45001,-14.74170,-8.50762
88.50001,-14.74983,-8.51285
88.55000,-14.75810,-8.51677
88.60001,-14.76676,-8.52270
88.65000,-14.77503,-8.52890
88.70001,-14.78330,-8.53383
88.75001,-14.79170,-8.53452
88.80000,-14.79996,-8.54613
88.85001,-14.80810,-8.54260
88.90000,-14.81650,-8.55211
88.95001,-14.82476,-8.55427
89.00001,-14.83316,-8.55798
89.05000,-14.84143,-8.56338
89.10001,-14.84983,-8.56979
89.15000,-14.85836,-8.57147
89.20001,-14.86663,-8.58078
89.25001,-14.87490,-8.58253
89.30000,-14.88330,-8.58858
89.35001,-14.89170,-8.59249
89.40000,-14.89983,-8.59680
89.45001,-14.90823,-8.60390
89.50001,-14.91676,-8.60233
89.55000,-14.92490,-8.61403
89.60001,-14.93303,-8.61174
89.65000,-14.94156,-8.61947
89.70001,-14.95010,-8.62329
89.75001,-14.95810,-8.62770
89.80000,-14.96650,-8.62973
89.85001,-14.97503,-8.63565
89.90000,-14.98316,-8.64051
89.95001,-14.99156,-8.64304
90.00001,-15.00010,-8.64942
90.05000,-15.00836,-8.65189
90.08200,-15.01356,-8.65407
