Time,Extension,Load
(sec),(mm),(N)
0.00000,-0.00013,-0.50341
0.05000,-0.00107,-0.50771
0.10000,-0.00480,-0.50681
0.15000,-0.01373,-0.52425
0.20000,-0.02440,-0.54400
0.25000,-0.03507,-0.56669
0.30000,-0.04520,-0.58462
0.35000,-0.05480,-0.60354
0.40000,-0.06413,-0.61733
0.45000,-0.07293,-0.63577
0.50000,-0.08187,-0.64555
0.55000,-0.09067,-0.66413
0.60000,-0.09920,-0.67536
0.65000,-0.10760,-0.69105
0.70000,-0.11627,-0.70265
0.75000,-0.12467,-0.71664
0.80000,-0.13320,-0.73056
0.85000,-0.14160,-0.74153
0.90000,-0.15000,-0.75471
0.95000,-0.15853,-0.76644
1.00000,-0.16693,-0.78204
1.05000,-0.17507,-0.79103
1.10000,-0.18360,-0.80477
1.15000,-0.19187,-0.81710
1.20000,-0.20000,-0.82926
1.25000,-0.20840,-0.83845
1.30000,-0.21680,-0.85337
1.35000,-0.22493,-0.86259
1.40000,-0.23320,-0.87756
1.45000,-0.24187,-0.88507
1.50000,-0.25027,-0.90228
1.55000,-0.25853,-0.90896
1.60000,-0.26707,-0.92565
1.65000,-0.27533,-0.93035
1.70000,-0.28360,-0.94767
1.75000,-0.29200,-0.95464
1.80000,-0.30027,-0.97042
1.85000,-0.30867,-0.97820
1.90000,-0.31707,-0.99262
1.95000,-0.32507,-1.00115
2.00000,-0.33347,-1.01385
2.05000,-0.34173,-1.02238
2.10000,-0.34987,-1.03614
2.15000,-0.35827,-1.04546
2.20000,-0.36680,-1.05788
2.25000,-0.37480,-1.06854
2.30000,-0.38333,-1.07975
2.35000,-0.39200,-1.08987
2.40000,-0.40013,-1.10177
2.45000,-0.40840,-1.11189
2.50000,-0.41707,-1.12311
2.55000,-0.42533,-1.13507
2.60000,-0.43347,-1.14468
2.65000,-0.44200,-1.15536
2.70000,-0.45027,-1.16662
2.75000,-0.45867,-1.17698
2.80000,-0.46693,-1.18643
2.85000,-0.47520,-1.19851
2.90000,-0.48360,-1.20743
2.95000,-0.49187,-1.22015
3.00000,-0.50000,-1.22719
3.05000,-0.50840,-1.24038
3.10000,-0.51680,-1.24820
3.15000,-0.52493,-1.26087
3.20000,-0.53347,-1.26805
3.25000,-0.54200,-1.28243
3.30000,-0.55027,-1.29023
3.35000,-0.55840,-1.30291
3.40000,-0.56693,-1.30970
3.45000,-0.57533,-1.32347
3.50000,-0.58347,-1.32992
3.55000,-0.59187,-1.34323
3.60000,-0.60027,-1.34971
3.65000,-0.60840,-1.36381
3.70000,-0.61667,-1.37065
3.75000,-0.62507,-1.38378
3.80000,-0.63333,-1.39108
3.85000,-0.64160,-1.40129
3.90000,-0.65013,-1.41330
3.95000,-0.65853,-1.42069
4.00000,-0.66693,-1.43434
4.05000,-0.67520,-1.44148
4.10000,-0.68346,-1.45598
4.15000,-0.69200,-1.45943
4.20000,-0.70013,-1.47560
4.25000,-0.70840,-1.47980
4.30000,-0.71706,-1.49550
4.35000,-0.72533,-1.49899
4.40000,-0.73346,-1.51528
4.45000,-0.74186,-1.51967
4.50000,-0.75026,-1.53440
4.55000,-0.75826,-1.53947
4.60000,-0.76666,-1.55297
4.65000,-0.77520,-1.55931
4.70000,-0.78346,-1.57243
4.75000,-0.79173,-1.57903
4.80000,-0.80026,-1.59239
4.85000,-0.80866,-1.60015
4.90000,-0.81680,-1.61127
4.95000,-0.82533,-1.61986
5.00000,-0.83360,-1.62933
5.05000,-0.84200,-1.64063
5.10000,-0.85026,-1.64840
5.15000,-0.85840,-1.66029
5.20000,-0.86693,-1.66758
5.25000,-0.87520,-1.68087
5.30000,-0.88333,-1.68637
5.35000,-0.89173,-1.69902
5.40000,-0.90013,-1.70522
5.45000,-0.90826,-1.71838
5.50000,-0.91666,-1.72460
5.55000,-0.92546,-1.73815
5.60000,-0.93360,-1.74599
5.65000,-0.94186,-1.75583
5.70000,-0.95026,-1.76481
5.75000,-0.95853,-1.77373
5.80000,-0.96680,-1.78478
5.85000,-0.97533,-1.79293
5.90000,-0.98360,-1.80439
5.95000,-0.99186,-1.81142
6.00000,-1.00013,-1.82289
6.05000,-1.00840,-1.82988
6.10000,-1.01666,-1.84043
6.15000,-1.02506,-1.84837
6.20000,-1.03320,-1.85978
6.25000,-1.04186,-1.86674
6.30000,-1.05040,-1.88034
6.35000,-1.05853,-1.88620
6.40000,-1.06693,-1.89831
6.45000,-1.07546,-1.90412
6.50000,-1.08360,-1.91669
6.55000,-1.09186,-1.92343
6.60000,-1.10040,-1.93406
6.65000,-1.10866,-1.94281
6.70000,-1.11666,-1.95296
6.75000,-1.12506,-1.96194
6.80000,-1.13360,-1.96940
6.85000,-1.14173,-1.98009
6.90000,-1.15000,-1.98818
6.95000,-1.15840,-1.99833
7.00000,-1.16666,-2.00628
7.05000,-1.17493,-2.01716
7.10000,-1.18333,-2.02499
7.15000,-1.19186,-2.03501
7.20000,-1.20026,-2.04288
7.25000,-1.20840,-2.05266
7.30000,-1.21680,-2.06109
7.35000,-1.22533,-2.07035
7.40000,-1.23360,-2.07984
7.45000,-1.24186,-2.08743
7.50000,-1.25040,-2.09605
7.55000,-1.25853,-2.10083
7.60000,-1.26653,-2.10199
7.65000,-1.27506,-2.09932
7.70000,-1.28360,-2.10316
7.75000,-1.29160,-2.10486
7.80000,-1.29986,-2.10423
7.85000,-1.30853,-2.10343
7.90000,-1.31680,-2.10247
7.95000,-1.32520,-2.10166
8.00000,-1.33360,-2.10093
8.05000,-1.34200,-2.10399
8.10000,-1.35040,-2.10603
8.15000,-1.35866,-2.10689
8.20000,-1.36693,-2.11005
8.25000,-1.37533,-2.11042
8.30000,-1.38360,-2.11025
8.35000,-1.39173,-2.10807
8.40000,-1.40026,-2.10830
8.45000,-1.40853,-2.10726
8.50000,-1.41666,-2.10635
8.55000,-1.42520,-2.10923
8.60000,-1.43346,-2.11230
8.65000,-1.44160,-2.11415
8.70000,-1.45013,-2.11625
8.75000,-1.45866,-2.11834
8.80000,-1.46680,-2.12158
8.85000,-1.47520,-2.12359
8.90000,-1.48386,-2.12344
8.95000,-1.49200,-2.11758
9.00000,-1.50026,-2.11974
9.05000,-1.50866,-2.11893
9.10000,-1.51693,-2.12540
9.15000,-1.52520,-2.13850
9.20000,-1.53346,-2.15180
9.25000,-1.54186,-2.16512
9.30000,-1.55026,-2.17775
9.35000,-1.55840,-2.18987
9.40000,-1.56653,-2.20164
9.45000,-1.57506,-2.21226
9.50000,-1.58360,-2.22426
9.55000,-1.59173,-2.23594
9.60000,-1.60013,-2.24749
9.65000,-1.60866,-2.25834
9.70000,-1.61693,-2.27009
9.75000,-1.62506,-2.27947
9.80000,-1.63360,-2.28968
9.85000,-1.64186,-2.30094
9.90000,-1.65013,-2.30987
9.95000,-1.65840,-2.32162
10.00000,-1.66693,-2.33074
10.05000,-1.67493,-2.34167
10.10000,-1.68320,-2.35041
10.15000,-1.69173,-2.36125
10.20000,-1.70000,-2.36951
10.25000,-1.70840,-2.38077
10.30000,-1.71680,-2.38977
10.35000,-1.72520,-2.40073
10.40000,-1.73360,-2.40878
10.45000,-1.74200,-2.42100
10.50000,-1.75013,-2.42799
10.55000,-1.75866,-2.43875
10.60000,-1.76693,-2.44671
10.65000,-1.77506,-2.45722
10.70000,-1.78373,-2.46572
10.75000,-1.79200,-2.47677
10.80000,-1.80013,-2.48499
10.85000,-1.80853,-2.49440
10.90000,-1.81693,-2.50363
10.95000,-1.82493,-2.51251
11.00000,-1.83333,-2.52094
11.05000,-1.84186,-2.53125
11.10000,-1.85013,-2.54122
11.15000,-1.85840,-2.54986
11.20000,-1.86693,-2.55874
11.25000,-1.87520,-2.56805
11.30000,-1.88360,-2.57715
11.35000,-1.89200,-2.58558
11.40000,-1.90026,-2.59540
11.45000,-1.90866,-2.60373
11.50000,-1.91706,-2.61407
11.55000,-1.92520,-2.62172
11.60000,-1.93360,-2.63105
11.65000,-1.94186,-2.63901
11.70000,-1.95000,-2.64791
11.75000,-1.95853,-2.65644
11.80000,-1.96693,-2.66614
11.85000,-1.97506,-2.67447
11.90000,-1.98346,-2.68479
11.95000,-1.99200,-2.69148
12.00000,-2.00013,-2.70224
12.05000,-2.00840,-2.70869
12.10000,-2.01706,-2.71909
12.15000,-2.02520,-2.72720
12.20000,-2.03359,-2.73714
12.25000,-2.04200,-2.74507
12.30000,-2.05026,-2.75457
12.35000,-2.05853,-2.76152
12.40000,-2.06680,-2.77049
12.45000,-2.07506,-2.77924
12.50000,-2.08346,-2.78658
12.55000,-2.09186,-2.79684
12.60000,-2.09986,-2.80367
12.65000,-2.10839,-2.81315
12.70000,-2.11679,-2.82004
12.75000,-2.12506,-2.83022
12.80000,-2.13346,-2.83652
12.85000,-2.14213,-2.84674
12.90000,-2.15026,-2.85514
12.95000,-2.15853,-2.86307
13.00000,-2.16706,-2.87305
13.05000,-2.17533,-2.87999
13.10000,-2.18346,-2.88884
13.15000,-2.19173,-2.89546
13.20000,-2.20026,-2.90479
13.25000,-2.20839,-2.91148
13.30000,-2.21666,-2.92013
13.35000,-2.22506,-2.92994
13.40000,-2.23333,-2.93667
13.45000,-2.24159,-2.94438
13.50000,-2.25013,-2.95313
13.55000,-2.25853,-2.96060
13.60000,-2.26693,-2.97096
13.65000,-2.27519,-2.97700
13.70000,-2.28346,-2.98809
13.75000,-2.29199,-2.99411
13.80000,-2.30026,-3.00294
13.85000,-2.30839,-3.01061
13.90000,-2.31706,-3.01859
13.95000,-2.32533,-3.02674
14.00000,-2.33333,-3.03364
14.05000,-2.34173,-3.04334
14.10000,-2.35013,-3.04983
14.15000,-2.35826,-3.05846
14.20000,-2.36666,-3.06615
14.25000,-2.37533,-3.07438
14.30000,-2.38359,-3.08228
14.35000,-2.39186,-3.09093
14.40000,-2.40039,-3.09893
14.45000,-2.40866,-3.10724
14.50000,-2.41693,-3.11486
14.55000,-2.42519,-3.12147
14.60000,-2.43359,-3.12906
14.65000,-2.44199,-3.13820
14.70000,-2.45026,-3.14448
14.75000,-2.45839,-3.15295
14.80000,-2.46693,-3.16097
14.85000,-2.47533,-3.16907
14.90000,-2.48333,-3.17581
14.95000,-2.49186,-3.18464
15.00000,-2.50026,-3.19202
15.05000,-2.50826,-3.19931
15.10000,-2.51679,-3.20649
15.15000,-2.52546,-3.21547
15.20000,-2.53346,-3.22332
15.25000,-2.54173,-3.23060
15.30000,-2.55039,-3.23897
15.35000,-2.55866,-3.24481
15.40000,-2.56679,-3.25484
15.45000,-2.57519,-3.26065
15.50000,-2.58359,-3.26770
15.55000,-2.59173,-3.27751
15.60000,-2.59999,-3.28468
15.65000,-2.60839,-3.29037
15.70000,-2.61679,-3.29950
15.75000,-2.62506,-3.30670
15.80000,-2.63319,-3.31383
15.85000,-2.64173,-3.31968
15.90000,-2.65026,-3.33173
15.95000,-2.65839,-3.33457
16.00000,-2.66679,-3.34497
16.05000,-2.67533,-3.35211
16.10000,-2.68359,-3.35781
16.15000,-2.69173,-3.36607
16.20000,-2.70026,-3.37361
16.25000,-2.70866,-3.38170
16.30000,-2.71679,-3.38564
16.35000,-2.72506,-3.39886
16.40000,-2.73359,-3.40114
16.45000,-2.74186,-3.41027
16.50000,-2.74999,-3.41647
16.55000,-2.75839,-3.42469
16.60000,-2.76666,-3.42918
16.65000,-2.77493,-3.43927
16.70000,-2.78333,-3.44610
16.75000,-2.79186,-3.45219
16.80000,-2.80026,-3.46076
16.85000,-2.80853,-3.46754
16.90000,-2.81693,-3.47435
16.95000,-2.82546,-3.48123
17.00000,-2.83359,-3.49121
17.05000,-2.84186,-3.49458
17.10000,-2.85039,-3.50341
17.15000,-2.85866,-3.51038
17.20000,-2.86666,-3.51832
17.25000,-2.87506,-3.52109
17.30000,-2.88359,-3.53269
17.35000,-2.89159,-3.53802
17.40000,-2.89986,-3.54416
17.45000,-2.90853,-3.55132
17.50000,-2.91679,-3.55939
17.55000,-2.92506,-3.56495
17.60000,-2.93359,-3.57148
17.65000,-2.94186,-3.57922
17.70000,-2.95026,-3.58682
17.75000,-2.95866,-3.59215
17.80000,-2.96693,-3.59944
17.85000,-2.97533,-3.60805
17.90000,-2.98373,-3.61218
17.95000,-2.99173,-3.61998
18.00000,-3.00026,-3.62557
18.05000,-3.00839,-3.63396
18.10000,-3.01639,-3.63804
18.15000,-3.02506,-3.64787
18.20000,-3.03346,-3.65353
18.25000,-3.04173,-3.66124
18.30000,-3.05026,-3.66595
18.35000,-3.05879,-3.67551
18.40000,-3.06679,-3.67956
18.45000,-3.07519,-3.68661
18.50000,-3.08373,-3.69490
18.55000,-3.09186,-3.70104
18.60000,-3.10013,-3.70514
18.65000,-3.10866,-3.71391
18.70000,-3.11693,-3.71987
18.75000,-3.12519,-3.72482
18.80000,-3.13359,-3.73238
18.85000,-3.14186,-3.73977
18.90000,-3.15026,-3.74395
18.95000,-3.15853,-3.75292
19.00000,-3.16666,-3.75692
19.05000,-3.17519,-3.76502
19.10000,-3.18359,-3.77024
19.15000,-3.19173,-3.77670
19.20000,-3.20013,-3.78405
19.25000,-3.20879,-3.79000
19.30000,-3.21693,-3.79661
19.35000,-3.22519,-3.80309
19.40000,-3.23373,-3.80887
19.45000,-3.24199,-3.81612
19.50000,-3.25026,-3.82022
19.55000,-3.25853,-3.82825
19.60000,-3.26693,-3.83248
19.65000,-3.27506,-3.84180
19.70000,-3.28333,-3.84347
19.75000,-3.29173,-3.85339
19.80000,-3.29999,-3.85771
19.85000,-3.30826,-3.86354
19.90000,-3.31666,-3.87036
19.95000,-3.32519,-3.87726
20.00000,-3.33359,-3.88380
20.05000,-3.34186,-3.89034
20.10000,-3.35026,-3.89527
20.15000,-3.35879,-3.90264
20.20000,-3.36693,-3.90673
20.25000,-3.37519,-3.91426
20.30000,-3.38373,-3.91860
20.35000,-3.39186,-3.92726
20.40000,-3.39999,-3.93147
20.45000,-3.40839,-3.93504
20.50000,-3.41692,-3.94716
20.55000,-3.42493,-3.94543
20.60000,-3.43319,-3.95767
20.65000,-3.44186,-3.95861
20.70000,-3.45012,-3.97055
20.75000,-3.45839,-3.97124
20.80000,-3.46692,-3.98194
20.85000,-3.47532,-3.98327
20.90000,-3.48359,-3.99362
20.95000,-3.49186,-3.99601
21.00000,-3.50026,-4.00194
21.05000,-3.50866,-4.01054
21.10000,-3.51692,-4.01312
21.15000,-3.52506,-4.02213
21.20000,-3.53359,-4.02366
21.25000,-3.54186,-4.03430
21.30000,-3.54999,-4.03466
21.35000,-3.55852,-4.04416
21.40000,-3.56692,-4.04604
21.45000,-3.57492,-4.05706
21.50000,-3.58332,-4.05617
21.55000,-3.59212,-4.06949
21.60000,-3.60026,-4.06841
21.65000,-3.60839,-4.07996
21.70000,-3.61706,-4.07847
21.75000,-3.62532,-4.09095
21.80000,-3.63346,-4.09058
21.85000,-3.64186,-4.10140
21.90000,-3.65026,-4.10107
21.95000,-3.65852,-4.11172
22.00000,-3.66679,-4.11323
22.05000,-3.67492,-4.11918
22.10000,-3.68346,-4.12446
22.15000,-3.69172,-4.12866
22.20000,-3.69999,-4.13897
22.25000,-3.70852,-4.13763
22.30000,-3.71692,-4.14849
22.35000,-3.72506,-4.15114
22.40000,-3.73346,-4.15848
22.45000,-3.74199,-4.15982
22.50000,-3.75012,-4.17174
22.55000,-3.75839,-4.16657
22.60000,-3.76692,-4.18741
22.65000,-3.77532,-4.17317
22.70000,-3.78346,-4.19779
22.75000,-3.79172,-4.18532
22.80000,-3.80026,-4.20455
22.85000,-3.80839,-4.19739
22.90000,-3.81666,-4.21383
22.95000,-3.82506,-4.20893
23.00000,-3.83332,-4.22215
23.05000,-3.84159,-4.22096
23.10000,-3.84999,-4.23015
23.15000,-3.85852,-4.23130
23.20000,-3.86692,-4.23925
23.25000,-3.87519,-4.24298
23.30000,-3.88346,-4.24853
23.35000,-3.89186,-4.25269
23.40000,-3.90012,-4.25781
23.45000,-3.90826,-4.26186
23.50000,-3.91679,-4.26456
23.55000,-3.92519,-4.27445
23.60000,-3.93319,-4.27071
23.65000,-3.94172,-4.28609
23.70000,-3.95012,-4.28002
23.75000,-3.95839,-4.29631
23.80000,-3.96652,-4.28894
23.85000,-3.97519,-4.30331
23.90000,-3.98346,-4.29971
23.95000,-3.99172,-4.31160
24.00000,-4.00026,-4.30967
24.05000,-4.00866,-4.32102
24.10000,-4.01692,-4.32020
24.15000,-4.02532,-4.32925
24.20000,-4.03359,-4.33033
24.25000,-4.04199,-4.33657
24.30000,-4.05039,-4.33885
24.35000,-4.05839,-4.34611
24.40000,-4.06706,-4.34917
24.45000,-4.07519,-4.35193
24.50000,-4.08319,-4.36004
24.55000,-4.09172,-4.36014
24.60000,-4.10012,-4.36786
24.65000,-4.10812,-4.36760
24.70000,-4.11666,-4.37879
24.75000,-4.12546,-4.37577
24.80000,-4.13359,-4.38949
24.85000,-4.14186,-4.38361
24.90000,-4.15039,-4.39824
24.95000,-4.15866,-4.39370
25.00000,-4.16679,-4.40221
25.05000,-4.17532,-4.40364
25.10000,-4.18372,-4.41063
25.15000,-4.19186,-4.41234
25.20000,-4.20012,-4.41746
25.25000,-4.20839,-4.42131
25.30000,-4.21692,-4.42394
25.35000,-4.22519,-4.42996
25.40000,-4.23332,-4.43069
25.45000,-4.24186,-4.43609
25.50000,-4.25026,-4.44079
25.55000,-4.25839,-4.44343
25.60000,-4.26666,-4.44693
25.65000,-4.27532,-4.45234
25.70000,-4.28346,-4.45426
25.75000,-4.29159,-4.45915
25.80000,-4.30012,-4.46101
25.85000,-4.30866,-4.46783
25.90000,-4.31679,-4.47174
25.95000,-4.32506,-4.47259
26.00000,-4.33332,-4.47920
26.05000,-4.34159,-4.48060
26.10000,-4.34999,-4.48587
26.15000,-4.35839,-4.48692
26.20000,-4.36679,-4.49391
26.25000,-4.37519,-4.49565
26.30000,-4.38346,-4.50102
26.35000,-4.39186,-4.50322
26.40000,-4.40026,-4.50613
26.45000,-4.40866,-4.51315
26.50000,-4.41679,-4.51114
26.55000,-4.42532,-4.51893
26.60000,-4.43359,-4.52084
26.65000,-4.44186,-4.52422
26.70000,-4.45039,-4.52941
26.75000,-4.45866,-4.53051
26.80000,-4.46679,-4.53695
26.85000,-4.47519,-4.53516
26.90000,-4.48359,-4.54495
26.95000,-4.49159,-4.54133
27.00000,-4.49999,-4.55086
27.05000,-4.50852,-4.55220
27.10000,-4.51692,-4.55329
27.15000,-4.52519,-4.56031
27.20000,-4.53359,-4.56175
27.25000,-4.54199,-4.56545
27.30000,-4.55026,-4.56845
27.35000,-4.55866,-4.57190
27.40000,-4.56692,-4.57710
27.45000,-4.57546,-4.57621
27.50000,-4.58372,-4.58480
27.55000,-4.59172,-4.58166
27.60000,-4.60026,-4.58816
27.65000,-4.60839,-4.59058
27.70000,-4.61652,-4.59520
27.75000,-4.62519,-4.59359
27.80000,-4.63359,-4.60573
27.85000,-4.64172,-4.60163
27.90000,-4.65012,-4.60767
27.95000,-4.65879,-4.60986
28.00000,-4.66692,-4.61650
28.05000,-4.67519,-4.61577
28.10000,-4.68372,-4.62104
28.15000,-4.69199,-4.62632
28.20000,-4.70026,-4.62525
28.25000,-4.70866,-4.63264
28.30000,-4.71706,-4.63232
28.35000,-4.72532,-4.63820
28.40000,-4.73346,-4.63810
28.45000,-4.74172,-4.64524
28.50000,-4.75026,-4.64607
28.55000,-4.75852,-4.65097
28.60000,-4.76652,-4.65269
28.65000,-4.77506,-4.65775
28.70000,-4.78359,-4.65817
28.75000,-4.79172,-4.66534
28.80000,-4.80012,-4.66395
28.85000,-4.80879,-4.67388
28.90000,-4.81692,-4.66868
28.95000,-4.82506,-4.68213
29.00000,-4.83359,-4.67380
29.05000,-4.84199,-4.68735
29.10000,-4.84999,-4.68182
29.15000,-4.85825,-4.69316
29.20000,-4.86679,-4.68845
29.25000,-4.87506,-4.69979
29.30000,-4.88332,-4.69361
29.35000,-4.89172,-4.70822
29.40000,-4.89999,-4.69655
29.45000,-4.90825,-4.71518
29.50000,-4.91665,-4.70556
29.55000,-4.92519,-4.71945
29.60000,-4.93359,-4.71376
29.65000,-4.94185,-4.72532
29.70000,-4.95012,-4.71915
29.75000,-4.95865,-4.73104
29.80000,-4.96692,-4.72419
29.85000,-4.97505,-4.73765
29.90000,-4.98359,-4.72989
29.95000,-4.99185,-4.74266
30.00000,-4.99985,-4.73675
30.05000,-5.00839,-4.74614
30.10000,-5.01679,-4.74259
30.15000,-5.02492,-4.75096
30.20000,-5.03332,-4.74959
30.25000,-5.04199,-4.75595
30.30000,-5.05012,-4.75678
30.35000,-5.05839,-4.76148
30.40000,-5.06692,-4.76325
30.45000,-5.07532,-4.76569
30.50000,-5.08359,-4.76911
30.55000,-5.09199,-4.77118
30.60000,-5.10039,-4.77431
30.65000,-5.10879,-4.77707
30.70000,-5.11705,-4.78181
30.75000,-5.12519,-4.78145
30.80000,-5.13372,-4.78533
30.85000,-5.14199,-4.78707
30.90000,-5.14999,-4.78970
30.95000,-5.15852,-4.79139
31.00000,-5.16692,-4.79485
31.05000,-5.17492,-4.79781
31.10000,-5.18332,-4.79972
31.15000,-5.19199,-4.80247
31.20000,-5.20025,-4.80555
31.25000,-5.20852,-4.80775
31.30000,-5.21705,-4.81030
31.35000,-5.22532,-4.81378
31.40000,-5.23359,-4.81512
31.45000,-5.24199,-4.81920
31.50000,-5.25025,-4.81906
31.55000,-5.25839,-4.82267
31.60000,-5.26665,-4.82342
31.65000,-5.27492,-4.82754
31.70000,-5.28345,-4.82694
31.75000,-5.29172,-4.83225
31.80000,-5.29985,-4.83314
31.85000,-5.30825,-4.83473
31.90000,-5.31679,-4.83660
31.95000,-5.32492,-4.83958
32.00000,-5.33332,-4.84133
32.05000,-5.34199,-4.84287
32.10000,-5.35025,-4.84758
32.15000,-5.35852,-4.84866
32.20000,-5.36692,-4.85140
32.25000,-5.37532,-4.85342
32.30000,-5.38345,-4.85488
32.35000,-5.39185,-4.85714
32.40000,-5.40025,-4.86019
32.45000,-5.40852,-4.86215
32.50000,-5.41679,-4.86462
32.55000,-5.42519,-4.86692
32.60000,-5.43345,-4.86961
32.65000,-5.44172,-4.87069
32.70000,-5.44999,-4.87336
32.75000,-5.45839,-4.87565
32.80000,-5.46692,-4.87885
32.85000,-5.47519,-4.88182
32.90000,-5.48345,-4.88378
32.95000,-5.49199,-4.88637
33.00000,-5.50025,-4.88926
33.05000,-5.50852,-4.89053
33.10000,-5.51692,-4.89297
33.15000,-5.52532,-4.89624
33.20000,-5.53345,-4.89793
33.25000,-5.54185,-4.90067
33.30000,-5.55025,-4.90410
33.35000,-5.55839,-4.90485
33.40000,-5.56665,-4.90783
33.45000,-5.57519,-4.90955
33.50000,-5.58345,-4.91253
33.55000,-5.59172,-4.91545
33.60000,-5.60025,-4.91865
33.65000,-5.60865,-4.92025
33.70000,-5.61692,-4.92290
33.75000,-5.62532,-4.92570
33.80000,-5.63372,-4.92762
33.85000,-5.64199,-4.93038
33.90000,-5.65025,-4.93271
33.95000,-5.65839,-4.93462
34.00000,-5.66692,-4.93657
34.05000,-5.67519,-4.93985
34.10000,-5.68332,-4.94061
34.15000,-5.69185,-4.94330
34.20000,-5.70025,-4.94549
34.25000,-5.70839,-4.94875
34.30000,-5.71679,-4.94995
34.35000,-5.72532,-4.95364
34.40000,-5.73359,-4.95535
34.45000,-5.74185,-4.95686
34.50000,-5.75039,-4.95874
34.55000,-5.75865,-4.96159
34.60000,-5.76679,-4.96276
34.65000,-5.77532,-4.96578
34.70000,-5.78359,-4.96858
34.75000,-5.79185,-4.97127
34.80000,-5.80012,-4.97292
34.85000,-5.80839,-4.97434
34.90000,-5.81679,-4.97682
34.95000,-5.82505,-4.97932
35.00000,-5.83319,-4.98153
35.05000,-5.84172,-4.98337
35.10000,-5.85025,-4.98758
35.15000,-5.85839,-4.98964
35.20000,-5.86679,-4.99144
35.25000,-5.87532,-4.99441
35.30000,-5.88345,-4.99669
35.35000,-5.89172,-4.99865
35.40000,-5.90039,-5.00104
35.45000,-5.90865,-5.00549
35.50000,-5.91665,-5.00658
35.55000,-5.92505,-5.00816
35.60000,-5.93359,-5.01191
35.65000,-5.94172,-5.01324
35.70000,-5.94999,-5.01519
35.75000,-5.95852,-5.01880
35.80000,-5.96679,-5.02043
35.85000,-5.97505,-5.02322
35.90000,-5.98345,-5.02528
35.95000,-5.99185,-5.02699
36.00000,-6.00025,-5.02946
36.05000,-6.00852,-5.03267
36.10000,-6.01692,-5.03408
36.15000,-6.02532,-5.03721
36.20000,-6.03359,-5.04057
36.25000,-6.04172,-5.04238
36.30000,-6.05025,-5.04434
36.35000,-6.05852,-5.04750
36.40000,-6.06665,-5.04887
36.45000,-6.07505,-5.05213
36.50000,-6.08359,-5.05453
36.55000,-6.09172,-5.05823
36.60000,-6.09998,-5.05935
36.65000,-6.10852,-5.06297
36.70000,-6.11665,-5.06456
36.75000,-6.12492,-5.06752
36.80000,-6.13345,-5.06985
36.85000,-6.14185,-5.07327
36.90000,-6.15025,-5.07545
36.95000,-6.15865,-5.07908
37.00000,-6.16692,-5.07993
37.05000,-6.17532,-5.08298
37.10000,-6.18359,-5.08428
37.15000,-6.19172,-5.08704
37.20000,-6.20025,-5.08884
37.25000,-6.20865,-5.09182
37.30000,-6.21665,-5.09558
37.35000,-6.22519,-5.09604
37.40000,-6.23358,-5.09921
37.45000,-6.24158,-5.10020
37.50000,-6.25012,-5.10251
37.55000,-6.25865,-5.10605
37.60000,-6.26678,-5.10832
37.65000,-6.27505,-5.11031
37.70000,-6.28372,-5.11266
37.75000,-6.29198,-5.11538
37.80000,-6.30025,-5.11698
37.85000,-6.30852,-5.11884
37.90000,-6.31678,-5.12094
37.95000,-6.32505,-5.12295
38.00000,-6.33345,-5.12496
38.05000,-6.34172,-5.12722
38.10000,-6.35025,-5.12877
38.15000,-6.35852,-5.13128
38.20000,-6.36665,-5.13283
38.25000,-6.37518,-5.13471
38.30000,-6.38358,-5.13770
38.35000,-6.39172,-5.13992
38.40000,-6.40012,-5.14165
38.45000,-6.40878,-5.14396
38.50000,-6.41692,-5.14599
38.55000,-6.42505,-5.14659
38.60000,-6.43372,-5.14887
38.65000,-6.44198,-5.15141
38.70000,-6.45012,-5.15316
38.75000,-6.45838,-5.15453
38.80000,-6.46692,-5.15663
38.85000,-6.47505,-5.15773
38.90000,-6.48332,-5.15979
38.95000,-6.49172,-5.16092
39.00000,-6.49998,-5.16330
39.05000,-6.50838,-5.16542
39.10000,-6.51678,-5.16788
39.15000,-6.52518,-5.16960
39.20000,-6.53358,-5.17163
39.25000,-6.54185,-5.17375
39.30000,-6.55012,-5.17496
39.35000,-6.55865,-5.17671
39.40000,-6.56692,-5.17959
39.45000,-6.57505,-5.18062
39.50000,-6.58358,-5.18245
39.55000,-6.59185,-5.18443
39.60000,-6.59998,-5.18668
39.65000,-6.60852,-5.18653
39.70000,-6.61692,-5.18992
39.75000,-6.62505,-5.19044
39.80000,-6.63332,-5.19258
39.85000,-6.64198,-5.19461
39.90000,-6.65012,-5.19660
39.95000,-6.65838,-5.19739
40.00000,-6.66692,-5.19929
40.05000,-6.67532,-5.20111
40.10000,-6.68358,-5.20304
40.15000,-6.69198,-5.20425
40.20000,-6.70025,-5.20634
40.25000,-6.70865,-5.20781
40.30000,-6.71692,-5.21044
40.35000,-6.72505,-5.21122
40.40000,-6.73345,-5.21232
40.45000,-6.74185,-5.21578
40.50000,-6.74998,-5.21666
40.55000,-6.75838,-5.21837
40.60000,-6.76692,-5.21991
40.65000,-6.77505,-5.22153
40.70000,-6.78345,-5.22307
40.75000,-6.79198,-5.22486
40.80000,-6.80012,-5.22652
40.85000,-6.80838,-5.22756
40.90000,-6.81692,-5.22939
40.95000,-6.82518,-5.23156
41.00000,-6.83358,-5.23285
41.05000,-6.84198,-5.23518
41.10000,-6.85038,-5.23594
41.15000,-6.85852,-5.23857
41.20000,-6.86678,-5.23892
41.25000,-6.87505,-5.24027
41.30000,-6.88358,-5.24293
41.35000,-6.89185,-5.24424
41.40000,-6.89985,-5.24560
41.45000,-6.90838,-5.24735
41.50000,-6.91678,-5.24889
41.55000,-6.92492,-5.25112
41.60000,-6.93332,-5.25248
41.65000,-6.94185,-5.25449
41.70000,-6.95012,-5.25666
41.75000,-6.95852,-5.25903
41.80000,-6.96705,-5.25966
41.85000,-6.97532,-5.26380
41.90000,-6.98345,-5.26286
41.95000,-6.99172,-5.26588
42.00000,-7.00012,-5.26576
42.05000,-7.00838,-5.26851
42.10000,-7.01665,-5.26869
42.15000,-7.02518,-5.27276
42.20000,-7.03345,-5.27264
42.25000,-7.04172,-5.27526
42.30000,-7.05012,-5.27687
42.35000,-7.05852,-5.27800
42.40000,-7.06678,-5.27975
42.45000,-7.07518,-5.28189
42.50000,-7.08358,-5.28312
42.55000,-7.09198,-5.28443
42.60000,-7.10025,-5.28655
42.65000,-7.10852,-5.28852
42.70000,-7.11705,-5.28993
42.75000,-7.12532,-5.29136
42.80000,-7.13332,-5.29325
42.85000,-7.14172,-5.29359
42.90000,-7.15025,-5.29504
42.95000,-7.15825,-5.29585
43.00000,-7.16652,-5.29721
43.05000,-7.17532,-5.29867
43.10000,-7.18345,-5.30040
43.15000,-7.19172,-5.30180
43.20000,-7.20025,-5.30329
43.25000,-7.20865,-5.30557
43.30000,-7.21692,-5.30632
43.35000,-7.22532,-5.30867
43.40000,-7.23358,-5.30944
43.45000,-7.24198,-5.31045
43.50000,-7.25038,-5.31211
43.55000,-7.25838,-5.31358
43.60000,-7.26692,-5.31411
43.65000,-7.27518,-5.31676
43.70000,-7.28332,-5.31691
43.75000,-7.29185,-5.31889
43.80000,-7.30012,-5.31934
43.85000,-7.30812,-5.32146
43.90000,-7.31678,-5.32155
43.95000,-7.32532,-5.32465
44.00000,-7.33345,-5.32586
44.05000,-7.34172,-5.32663
44.10000,-7.35038,-5.32793
44.15000,-7.35852,-5.33055
44.20000,-7.36678,-5.33075
44.25000,-7.37532,-5.33266
44.30000,-7.38358,-5.33508
44.35000,-7.39185,-5.33605
44.40000,-7.40025,-5.33778
44.45000,-7.40852,-5.33952
44.50000,-7.41692,-5.34002
44.55000,-7.42518,-5.34212
44.60000,-7.43332,-5.34261
44.65000,-7.44185,-5.34475
44.70000,-7.45025,-5.34556
44.75000,-7.45838,-5.34751
44.80000,-7.46678,-5.34765
44.85000,-7.47532,-5.34958
44.90000,-7.48358,-5.35094
44.95000,-7.49172,-5.35123
45.00000,-7.50025,-5.35211
45.05000,-7.50865,-5.35389
45.10000,-7.51665,-5.35515
45.15000,-7.52505,-5.35472
45.20000,-7.53358,-5.35670
45.25000,-7.54171,-5.35728
45.30000,-7.54998,-5.35724
45.35000,-7.55838,-5.35818
45.40000,-7.56665,-5.35855
45.45000,-7.57491,-5.35906
45.50000,-7.58332,-5.36013
45.55000,-7.59185,-5.36179
45.60000,-7.60011,-5.36275
45.65000,-7.60851,-5.36372
45.70000,-7.61691,-5.36503
45.75000,-7.62531,-5.36528
45.80000,-7.63358,-5.36692
45.85000,-7.64171,-5.36599
45.90000,-7.65025,-5.36669
45.95000,-7.65851,-5.36782
46.00000,-7.66665,-5.36892
46.05000,-7.67505,-5.36830
46.10000,-7.68345,-5.37047
46.15000,-7.69158,-5.37035
46.20000,-7.69985,-5.37104
46.25000,-7.70851,-5.37251
46.30000,-7.71678,-5.37312
46.35000,-7.72518,-5.37435
46.40000,-7.73358,-5.37492
46.45000,-7.74198,-5.37614
46.50000,-7.75025,-5.37558
46.55000,-7.75865,-5.37723
46.60000,-7.76691,-5.37614
46.65000,-7.77531,-5.37767
46.70000,-7.78358,-5.37677
46.75000,-7.79171,-5.37763
46.80000,-7.80038,-5.37643
46.85000,-7.80865,-5.37867
46.90000,-7.81665,-5.37735
46.95000,-7.82518,-5.37831
47.00000,-7.83358,-5.37841
47.05000,-7.84158,-5.37840
47.10000,-7.84998,-5.37826
47.15000,-7.85878,-5.37873
47.20000,-7.86678,-5.37877
47.25000,-7.87505,-5.37807
47.30000,-7.88371,-5.37832
47.35000,-7.89198,-5.37754
47.40000,-7.90025,-5.37795
47.45000,-7.90865,-5.37684
47.50000,-7.91691,-5.37716
47.55000,-7.92518,-5.37635
47.60000,-7.93358,-5.37599
47.65000,-7.94185,-5.37550
47.70000,-7.95025,-5.37418
47.75000,-7.95851,-5.37365
47.80000,-7.96665,-5.37338
47.85000,-7.97518,-5.37226
47.90000,-7.98358,-5.37252
47.95000,-7.99185,-5.37256
48.00000,-8.00025,-5.37224
48.05000,-8.00878,-5.37279
48.10000,-8.01691,-5.37096
48.15000,-8.02505,-5.37133
48.20000,-8.03358,-5.36890
48.25000,-8.04198,-5.36920
48.30000,-8.05025,-5.36861
48.35000,-8.05851,-5.36852
48.40000,-8.06705,-5.36768
48.45000,-8.07518,-5.36658
48.50000,-8.08331,-5.36755
48.55000,-8.09185,-5.36562
48.60000,-8.10011,-5.36655
48.65000,-8.10838,-5.36563
48.70000,-8.11678,-5.36690
48.75000,-8.12518,-5.36554
48.80000,-8.13358,-5.36785
48.85000,-8.14185,-5.36708
48.90000,-8.15011,-5.36696
48.95000,-8.15865,-5.36773
49.00000,-8.16691,-5.36811
49.05000,-8.17518,-5.36775
49.10000,-8.18371,-5.36873
49.15000,-8.19198,-5.36943
49.20000,-8.19998,-5.36869
49.25000,-8.20851,-5.36905
49.30000,-8.21691,-5.37065
49.35000,-8.22491,-5.37027
49.40000,-8.23318,-5.36959
49.45000,-8.24185,-5.37290
49.50000,-8.24998,-5.37185
49.55000,-8.25825,-5.37346
49.60000,-8.26678,-5.37352
49.65000,-8.27518,-5.37598
49.70000,-8.28345,-5.37508
49.75000,-8.29185,-5.37741
49.80000,-8.29998,-5.37623
49.85000,-8.30838,-5.37831
49.90000,-8.31665,-5.37938
49.95000,-8.32478,-5.37964
50.00000,-8.33345,-5.38043
50.05000,-8.34185,-5.38345
50.10000,-8.34998,-5.38379
50.15000,-8.35851,-5.38354
50.20000,-8.36678,-5.38535
50.25000,-8.37491,-5.38672
50.30000,-8.38345,-5.38659
50.35000,-8.39211,-5.38945
50.40000,-8.40025,-5.39023
50.45000,-8.40851,-5.39077
50.50000,-8.41705,-5.39159
50.55000,-8.42518,-5.39330
50.60000,-8.43345,-5.39336
50.65000,-8.44198,-5.39470
50.70000,-8.45038,-5.39661
50.75000,-8.45851,-5.39725
50.80000,-8.46691,-5.39842
50.85000,-8.47518,-5.40023
50.90000,-8.48371,-5.40123
50.95000,-8.49185,-5.40298
51.00000,-8.49998,-5.40383
51.05000,-8.50851,-5.40549
51.10000,-8.51691,-5.40723
51.15000,-8.52518,-5.40908
51.20000,-8.53345,-5.41021
51.25000,-8.54211,-5.41225
51.30000,-8.55025,-5.41382
51.35000,-8.55838,-5.41496
51.40000,-8.56691,-5.41630
51.45000,-8.57531,-5.41856
51.50000,-8.58345,-5.41950
51.55000,-8.59171,-5.42039
51.60000,-8.60025,-5.42229
51.65000,-8.60838,-5.42406
51.70000,-8.61665,-5.42544
51.75000,-8.62505,-5.42681
51.80000,-8.63331,-5.42829
51.85000,-8.64171,-5.43032
51.90000,-8.65011,-5.43242
51.95000,-8.65851,-5.43368
52.00000,-8.66691,-5.43651
52.05000,-8.67518,-5.43809
52.10000,-8.68345,-5.43931
52.15000,-8.69198,-5.44116
52.20000,-8.70025,-5.44333
52.25000,-8.70838,-5.44405
52.30000,-8.71691,-5.44690
52.35000,-8.72518,-5.44856
52.40000,-8.73331,-5.45016
52.45000,-8.74171,-5.45089
52.50000,-8.75025,-5.45512
52.55000,-8.75825,-5.45537
52.60000,-8.76665,-5.45832
52.65000,-8.77518,-5.45890
52.70000,-8.78358,-5.46308
52.75000,-8.79171,-5.46409
52.80000,-8.80024,-5.46658
52.85000,-8.80865,-5.46761
52.90000,-8.81691,-5.47142
52.95000,-8.82531,-5.47135
53.00000,-8.83358,-5.47609
53.05000,-8.84198,-5.47505
53.10000,-8.85024,-5.48029
53.15000,-8.85838,-5.47986
53.20000,-8.86704,-5.48403
53.25000,-8.87518,-5.48395
53.30000,-8.88331,-5.48750
53.35000,-8.89171,-5.48650
53.40000,-8.90024,-5.49153
53.45000,-8.90824,-5.49080
53.50000,-8.91665,-5.49463
53.55000,-8.92531,-5.49624
53.60000,-8.93345,-5.49956
53.65000,-8.94171,-5.49987
53.70000,-8.95038,-5.50341
53.75000,-8.95851,-5.50443
53.80000,-8.96678,-5.50542
53.85000,-8.97518,-5.50659
53.90000,-8.98345,-5.50926
53.95000,-8.99184,-5.50961
54.00000,-9.00024,-5.51206
54.05000,-9.00851,-5.51367
54.10000,-9.01691,-5.51556
54.15000,-9.02518,-5.51627
54.20000,-9.03331,-5.51798
54.25000,-9.04171,-5.51816
54.30000,-9.05024,-5.52055
54.35000,-9.05838,-5.52092
54.40000,-9.06678,-5.52201
54.45000,-9.07545,-5.52317
54.50000,-9.08358,-5.52439
54.55000,-9.09171,-5.52594
54.60000,-9.10024,-5.52597
54.65000,-9.10864,-5.52889
54.70000,-9.11664,-5.52804
54.75000,-9.12504,-5.53052
54.80000,-9.13358,-5.53031
54.85000,-9.14171,-5.53330
54.90000,-9.15011,-5.53367
54.95000,-9.15838,-5.53443
55.00000,-9.16664,-5.53606
55.05000,-9.17491,-5.53674
55.10000,-9.18331,-5.53816
55.15000,-9.19184,-5.53875
55.20000,-9.20011,-5.54183
55.25000,-9.20838,-5.54344
55.30000,-9.21678,-5.54279
55.35000,-9.22531,-5.54614
55.40000,-9.23358,-5.54712
55.45000,-9.24171,-5.54768
55.50000,-9.25038,-5.54875
55.55000,-9.25878,-5.55107
55.60000,-9.26678,-5.55126
55.65000,-9.27518,-5.55146
55.70000,-9.28358,-5.55289
55.75000,-9.29158,-5.55287
55.80000,-9.29998,-5.55388
55.85000,-9.30851,-5.55459
55.90000,-9.31678,-5.55630
55.95000,-9.32504,-5.55735
56.00000,-9.33358,-5.55797
56.05000,-9.34198,-5.56094
56.10000,-9.35024,-5.56037
56.15000,-9.35851,-5.56182
56.20000,-9.36691,-5.56301
56.25000,-9.37544,-5.56197
56.30000,-9.38371,-5.56726
56.35000,-9.39171,-5.56154
56.40000,-9.40038,-5.56679
56.45000,-9.40851,-5.56446
56.50000,-9.41638,-5.56403
56.55000,-9.42491,-5.56453
56.60000,-9.43344,-5.56481
56.65000,-9.44171,-5.56765
56.70000,-9.45024,-5.56685
56.75000,-9.45891,-5.56942
56.80000,-9.46691,-5.57110
56.85000,-9.47504,-5.56982
56.90000,-9.48358,-5.57157
56.95000,-9.49171,-5.56940
57.00000,-9.49998,-5.57484
57.05000,-9.50851,-5.57183
57.10000,-9.51691,-5.57634
57.15000,-9.52504,-5.57422
57.20000,-9.53344,-5.57895
57.25000,-9.54171,-5.57640
57.30000,-9.55011,-5.58241
57.35000,-9.55864,-5.57682
57.40000,-9.56678,-5.58754
57.45000,-9.57531,-5.57920
57.50000,-9.58358,-5.58833
57.55000,-9.59171,-5.58193
57.60000,-9.60011,-5.58907
57.65000,-9.60878,-5.58355
57.70000,-9.61691,-5.59241
57.75000,-9.62504,-5.58464
57.80000,-9.63358,-5.59299
57.85000,-9.64184,-5.58731
57.90000,-9.64998,-5.59412
57.95000,-9.65838,-5.58871
58.00000,-9.66691,-5.59596
58.05000,-9.67518,-5.59132
58.10000,-9.68331,-5.59727
58.15000,-9.69171,-5.59418
58.20000,-9.69998,-5.59765
58.25000,-9.70838,-5.59719
58.30000,-9.71664,-5.59774
58.35000,-9.72504,-5.60132
58.40000,-9.73358,-5.59876
58.45000,-9.74171,-5.60391
58.50000,-9.74984,-5.59940
58.55000,-9.75851,-5.60297
58.60000,-9.76678,-5.60214
58.65000,-9.77491,-5.60346
58.70000,-9.78371,-5.60182
58.75000,-9.79211,-5.60770
58.80000,-9.80011,-5.60355
58.85000,-9.80851,-5.60775
58.90000,-9.81704,-5.60327
58.95000,-9.82504,-5.61075
59.00000,-9.83331,-5.60294
59.05000,-9.84184,-5.61173
59.10000,-9.85024,-5.60531
59.15000,-9.85851,-5.61230
59.20000,-9.86691,-5.60575
59.25000,-9.87531,-5.61459
59.30000,-9.88358,-5.60211
59.35000,-9.89198,-5.61866
59.40000,-9.90024,-5.60030
59.45000,-9.90878,-5.61786
59.50000,-9.91704,-5.60401
59.55000,-9.92504,-5.61524
59.60000,-9.93371,-5.60398
59.65000,-9.94198,-5.61535
59.70000,-9.94998,-5.60467
59.75000,-9.95838,-5.61350
59.80000,-9.96691,-5.60621
59.85000,-9.97504,-5.61458
59.90000,-9.98344,-5.60748
59.95000,-9.99198,-5.61557
60.00000,-10.00011,-5.60893
60.05000,-10.00838,-5.61623
60.10000,-10.01691,-5.60972
60.15000,-10.02518,-5.61720
60.20000,-10.03344,-5.61192
60.25000,-10.04198,-5.61901
60.30000,-10.05024,-5.61269
60.35000,-10.05851,-5.62056
60.40000,-10.06691,-5.61399
60.45000,-10.07504,-5.62007
60.50000,-10.08358,-5.61604
60.55000,-10.09184,-5.62139
60.60000,-10.09984,-5.61811
60.65000,-10.10837,-5.62260
60.70000,-10.11691,-5.62099
60.75000,-10.12491,-5.62540
60.80000,-10.13331,-5.62269
60.85000,-10.14198,-5.62860
60.90000,-10.15011,-5.62557
60.95000,-10.15837,-5.63179
61.00000,-10.16691,-5.62819
61.05000,-10.17531,-5.63440
61.10000,-10.18358,-5.63351
61.15000,-10.19184,-5.63640
61.20000,-10.20037,-5.63572
61.25000,-10.20851,-5.63920
61.30000,-10.21678,-5.63741
61.35000,-10.22517,-5.64158
61.40000,-10.23344,-5.63812
61.45000,-10.24171,-5.64390
61.50000,-10.25011,-5.64163
61.55000,-10.25837,-5.64656
61.60000,-10.26691,-5.64442
61.65000,-10.27517,-5.65174
61.70000,-10.28331,-5.64746
61.75000,-10.29197,-5.65367
61.80000,-10.30024,-5.65298
61.85000,-10.30837,-5.65557
61.90000,-10.31691,-5.65613
61.95000,-10.32517,-5.65927
62.00000,-10.33331,-5.66067
62.05000,-10.34184,-5.66214
62.10000,-10.35024,-5.66507
62.15000,-10.35824,-5.66633
62.20000,-10.36664,-5.66842
62.25000,-10.37517,-5.67012
62.30000,-10.38344,-5.67380
62.35000,-10.39171,-5.67387
62.40000,-10.40024,-5.67831
62.45000,-10.40864,-5.67840
62.50000,-10.41704,-5.68274
62.55000,-10.42531,-5.68281
62.60000,-10.43357,-5.68592
62.65000,-10.44197,-5.68578
62.70000,-10.45024,-5.69122
62.75000,-10.45837,-5.68889
62.80000,-10.46691,-5.69378
62.85000,-10.47517,-5.69435
62.90000,-10.48331,-5.69769
62.95000,-10.49171,-5.69660
63.00000,-10.50024,-5.70184
63.05000,-10.50824,-5.70121
63.10000,-10.51677,-5.70471
63.15000,-10.52544,-5.70646
63.20000,-10.53344,-5.70969
63.25000,-10.54184,-5.71056
63.30000,-10.55037,-5.71218
63.35000,-10.55864,-5.71424
63.40000,-10.56691,-5.71692
63.45000,-10.57531,-5.71760
63.50000,-10.58371,-5.71981
63.55000,-10.59197,-5.72161
63.60000,-10.60024,-5.72361
63.65000,-10.60837,-5.72339
63.70000,-10.61691,-5.72711
63.75000,-10.62504,-5.72801
63.80000,-10.63317,-5.73055
63.85000,-10.64184,-5.73177
63.90000,-10.65037,-5.73625
63.95000,-10.65837,-5.73673
64.00000,-10.66677,-5.73914
64.05000,-10.67531,-5.74100
64.10001,-10.68357,-5.74314
64.15000,-10.69171,-5.74418
64.20000,-10.70024,-5.74695
64.25000,-10.70864,-5.74898
64.30000,-10.71677,-5.75020
64.35001,-10.72504,-5.75330
64.40000,-10.73357,-5.75507
64.45000,-10.74171,-5.75786
64.50000,-10.74997,-5.75928
64.55000,-10.75837,-5.76355
64.60001,-10.76677,-5.76457
64.65000,-10.77504,-5.76789
64.70000,-10.78344,-5.77110
64.75000,-10.79184,-5.77372
64.80000,-10.80024,-5.77595
64.85001,-10.80837,-5.77938
64.90000,-10.81677,-5.78122
64.95000,-10.82531,-5.78394
65.00000,-10.83357,-5.78629
65.05000,-10.84184,-5.78893
65.10001,-10.85024,-5.79046
65.15000,-10.85864,-5.79377
65.20000,-10.86664,-5.79503
65.25000,-10.87517,-5.79691
65.30000,-10.88357,-5.80074
65.35001,-10.89157,-5.80120
65.40000,-10.89997,-5.80577
65.45000,-10.90864,-5.80690
65.50000,-10.91691,-5.81108
65.55000,-10.92504,-5.81293
65.60001,-10.93344,-5.81510
65.65000,-10.94184,-5.81579
65.70001,-10.95024,-5.82221
65.75000,-10.95851,-5.82253
65.80000,-10.96664,-5.82392
65.85001,-10.97517,-5.82673
65.90000,-10.98344,-5.83196
65.95001,-10.99144,-5.82777
66.00000,-11.00024,-5.83832
66.05000,-11.00864,-5.83443
66.10001,-11.01651,-5.84470
66.15000,-11.02504,-5.83667
66.20001,-11.03344,-5.85216
66.25000,-11.04157,-5.84258
66.30000,-11.04997,-5.85778
66.35001,-11.05864,-5.85020
66.40000,-11.06691,-5.86413
66.45001,-11.07517,-5.85698
66.50000,-11.08371,-5.86699
66.55000,-11.09211,-5.86465
66.60001,-11.10024,-5.87117
66.65000,-11.10864,-5.87106
66.70001,-11.11691,-5.87661
66.75000,-11.12544,-5.87597
66.80000,-11.13371,-5.88299
66.85001,-11.14184,-5.88294
66.90000,-11.15037,-5.88690
66.95001,-11.15864,-5.89111
67.00000,-11.16677,-5.89223
67.05000,-11.17517,-5.89593
67.10001,-11.18371,-5.89887
67.15000,-11.19184,-5.90406
67.20001,-11.20024,-5.90429
67.25000,-11.20877,-5.91051
67.30000,-11.21704,-5.91278
67.35001,-11.22517,-5.91361
67.40000,-11.23371,-5.91673
67.45001,-11.24211,-5.92286
67.50000,-11.25024,-5.92217
67.55000,-11.25851,-5.92468
67.60001,-11.26691,-5.92850
67.65000,-11.27504,-5.93049
67.70001,-11.28331,-5.93231
67.75000,-11.29171,-5.93706
67.80000,-11.29997,-5.93754
67.85001,-11.30837,-5.94230
67.90000,-11.31677,-5.94506
67.95001,-11.32517,-5.94909
68.00000,-11.33357,-5.95014
68.05000,-11.34184,-5.95525
68.10001,-11.35024,-5.95548
68.15000,-11.35877,-5.96005
68.20001,-11.36704,-5.96211
68.25000,-11.37517,-5.96459
68.30000,-11.38371,-5.96605
68.35001,-11.39197,-5.96998
68.40000,-11.40011,-5.97103
68.45001,-11.40851,-5.97193
68.50000,-11.41677,-5.97596
68.55000,-11.42491,-5.97753
68.60001,-11.43331,-5.97940
68.65000,-11.44184,-5.98266
68.70001,-11.45024,-5.98738
68.75000,-11.45851,-5.98939
68.80000,-11.46704,-5.99289
68.85001,-11.47531,-5.99600
68.90000,-11.48357,-5.99955
68.95001,-11.49197,-6.00100
69.00000,-11.50024,-6.00497
69.05000,-11.50864,-6.00690
69.10001,-11.51704,-6.01070
69.15000,-11.52504,-6.01203
69.20001,-11.53371,-6.01537
69.25000,-11.54197,-6.01863
69.30000,-11.54997,-6.02115
69.35001,-11.55850,-6.02264
69.40000,-11.56691,-6.02619
69.45001,-11.57491,-6.02891
69.50000,-11.58344,-6.03011
69.55000,-11.59211,-6.03403
69.60001,-11.60011,-6.03697
69.65000,-11.60837,-6.03996
69.70001,-11.61704,-6.04134
69.75000,-11.62530,-6.04384
69.80000,-11.63357,-6.04748
69.85001,-11.64210,-6.04951
69.90000,-11.65037,-6.05301
69.95001,-11.65864,-6.05276
70.00000,-11.66691,-6.05825
70.05000,-11.67530,-6.05700
70.10001,-11.68384,-6.06238
70.15000,-11.69197,-6.06383
70.20001,-11.69997,-6.06812
70.25000,-11.70850,-6.06486
70.30000,-11.71691,-6.07160
70.35001,-11.72504,-6.07259
70.40000,-11.73357,-6.07532
70.45001,-11.74197,-6.07599
70.50000,-11.75024,-6.08160
70.55000,-11.75837,-6.08101
70.60001,-11.76690,-6.08345
70.65000,-11.77530,-6.08550
70.70001,-11.78344,-6.08874
70.75000,-11.79170,-6.08880
70.80000,-11.80024,-6.09264
70.85001,-11.80837,-6.09278
70.90000,-11.81664,-6.09696
70.95001,-11.82504,-6.09802
71.00000,-11.83344,-6.10329
71.05000,-11.84170,-6.10326
71.10001,-11.85010,-6.10692
71.15000,-11.85850,-6.10787
71.20001,-11.86677,-6.11231
71.25000,-11.87504,-6.11362
71.30000,-11.88344,-6.11751
71.35001,-11.89197,-6.11943
71.40000,-11.90024,-6.12361
71.45001,-11.90850,-6.12326
71.50000,-11.91704,-6.12887
71.55000,-11.92530,-6.12971
71.60001,-11.93344,-6.13270
71.65000,-11.94170,-6.13240
71.70001,-11.95024,-6.13748
71.75000,-11.95837,-6.13621
71.80000,-11.96664,-6.14206
71.85001,-11.97530,-6.14371
71.90000,-11.98357,-6.14755
71.95001,-11.99184,-6.15058
72.00000,-12.00037,-6.15531
72.05000,-12.00877,-6.15685
72.10001,-12.01690,-6.16026
72.15000,-12.02544,-6.16390
72.20001,-12.03357,-6.16600
72.25000,-12.04210,-6.16850
72.30000,-12.05037,-6.17433
72.35001,-12.05850,-6.17461
72.40000,-12.06704,-6.17795
72.45001,-12.07530,-6.18055
72.50000,-12.08330,-6.18500
72.55000,-12.09184,-6.18461
72.60001,-12.10037,-6.19096
72.65000,-12.10837,-6.19134
72.70001,-12.11677,-6.19563
72.75000,-12.12544,-6.19826
72.80000,-12.13357,-6.20325
72.85001,-12.14184,-6.20403
72.90000,-12.15037,-6.20956
72.95001,-12.15864,-6.21225
73.00000,-12.16690,-6.21348
73.05000,-12.17544,-6.21932
73.10001,-12.18370,-6.22157
73.15000,-12.19197,-6.22488
73.20001,-12.20024,-6.22725
73.25000,-12.20850,-6.23179
73.30000,-12.21690,-6.23266
73.35001,-12.22517,-6.23649
73.40000,-12.23330,-6.23927
73.45001,-12.24184,-6.24176
73.50000,-12.25024,-6.24545
73.55000,-12.25837,-6.24794
73.60001,-12.26677,-6.25156
73.65000,-12.27530,-6.25306
73.70001,-12.28344,-6.25812
73.75000,-12.29170,-6.25818
73.80000,-12.30024,-6.26296
73.85001,-12.30864,-6.26471
73.90000,-12.31677,-6.26849
73.95001,-12.32517,-6.26994
74.00000,-12.33357,-6.27453
74.05000,-12.34170,-6.27491
74.10001,-12.34997,-6.27934
74.15000,-12.35850,-6.28178
74.20001,-12.36664,-6.28554
74.25000,-12.37504,-6.28827
74.30000,-12.38344,-6.29206
74.35001,-12.39184,-6.29453
74.40000,-12.40024,-6.29996
74.45001,-12.40864,-6.30222
74.50000,-12.41690,-6.30660
74.55000,-12.42544,-6.30997
74.60001,-12.43370,-6.31464
74.65000,-12.44184,-6.31474
74.70001,-12.45037,-6.31976
74.75000,-12.45864,-6.32311
74.80000,-12.46677,-6.32432
74.85001,-12.47517,-6.32817
74.90000,-12.48357,-6.33073
74.95001,-12.49157,-6.33418
75.00000,-12.49997,-6.33688
75.05000,-12.50864,-6.34149
75.10001,-12.51690,-6.34476
75.15000,-12.52517,-6.34687
75.20001,-12.53357,-6.35152
75.25000,-12.54197,-6.35220
75.30000,-12.55024,-6.35692
75.35001,-12.55864,-6.35897
75.40000,-12.56704,-6.36367
75.45001,-12.57530,-6.36413
75.50000,-12.58370,-6.37041
75.55000,-12.59184,-6.37158
75.60001,-12.60037,-6.37406
75.65000,-12.60864,-6.37780
75.70001,-12.61664,-6.37984
75.75000,-12.62517,-6.38101
75.80000,-12.63344,-6.38387
75.85001,-12.64157,-6.38832
75.90000,-12.65010,-6.38994
75.95001,-12.65877,-6.39482
76.00000,-12.66677,-6.39739
76.05000,-12.67517,-6.39972
76.10001,-12.68384,-6.40367
76.15000,-12.69197,-6.40517
76.20001,-12.70024,-6.40836
76.25000,-12.70864,-6.41015
76.30000,-12.71690,-6.41400
76.35001,-12.72517,-6.41622
76.40000,-12.73357,-6.41956
76.45001,-12.74184,-6.42157
76.50000,-12.75024,-6.42427
76.55000,-12.75864,-6.42637
76.60001,-12.76664,-6.42941
76.65000,-12.77530,-6.42905
76.70001,-12.78357,-6.43730
76.75000,-12.79170,-6.43615
76.80000,-12.80024,-6.44211
76.85001,-12.80877,-6.44329
76.90000,-12.81690,-6.44870
76.95001,-12.82517,-6.44703
77.00000,-12.83370,-6.45353
77.05000,-12.84197,-6.45479
77.10001,-12.85024,-6.45768
77.15000,-12.85850,-6.45762
77.20001,-12.86690,-6.46299
77.25000,-12.87504,-6.46228
77.30000,-12.88330,-6.46673
77.35001,-12.89170,-6.46893
77.40000,-12.89997,-6.47065
77.45001,-12.90837,-6.47496
77.50000,-12.91677,-6.47715
77.55000,-12.92517,-6.48112
77.60001,-12.93343,-6.48312
77.65000,-12.94170,-6.48707
77.70001,-12.95010,-6.48818
77.75000,-12.95850,-6.49217
77.80000,-12.96677,-6.49625
77.85001,-12.97504,-6.49846
77.90000,-12.98357,-6.50162
77.95001,-12.99197,-6.50713
78.00000,-13.00010,-6.50858
78.05000,-13.00850,-6.51143
78.10001,-13.01690,-6.51535
78.15000,-13.02504,-6.51911
78.20001,-13.03330,-6.51969
78.25000,-13.04197,-6.52402
78.30000,-13.05010,-6.52673
78.35001,-13.05850,-6.52966
78.40000,-13.06690,-6.53317
78.45001,-13.07530,-6.53666
78.50000,-13.08370,-6.53917
78.55000,-13.09197,-6.54323
78.60001,-13.10037,-6.54491
78.65000,-13.10863,-6.54923
78.70001,-13.11690,-6.55184
78.75000,-13.12503,-6.55359
78.80000,-13.13357,-6.55638
78.85001,-13.14197,-6.56065
78.90000,-13.14997,-6.56316
78.95001,-13.15850,-6.56566
79.00000,-13.16690,-6.56941
79.05000,-13.17503,-6.57206
79.10001,-13.18343,-6.57400
79.15000,-13.19210,-6.57800
79.20001,-13.20010,-6.58174
79.25000,-13.20850,-6.58248
79.30000,-13.21703,-6.58692
79.35001,-13.22530,-6.58946
79.40000,-13.23357,-6.59216
79.45001,-13.24210,-6.59502
79.50000,-13.25037,-6.59924
79.55000,-13.25850,-6.59937
79.60001,-13.26690,-6.60345
79.65000,-13.27503,-6.60486
79.70001,-13.28357,-6.60790
79.75000,-13.29183,-6.60971
79.80000,-13.29997,-6.61336
79.85001,-13.30850,-6.61411
79.90000,-13.31690,-6.61934
79.95001,-13.32517,-6.62144
80.00000,-13.33343,-6.62393
80.05000,-13.34197,-6.62604
80.10001,-13.35023,-6.62996
80.15000,-13.35837,-6.63100
80.20001,-13.36703,-6.63428
80.25000,-13.37530,-6.63775
80.30000,-13.38343,-6.63982
80.35001,-13.39170,-6.64287
80.40000,-13.40023,-6.64371
80.45001,-13.40837,-6.64875
80.50001,-13.41663,-6.64872
80.55000,-13.42517,-6.65509
80.60001,-13.43343,-6.65400
80.65000,-13.44170,-6.66003
80.70001,-13.44997,-6.66028
80.75001,-13.45850,-6.66494
80.80000,-13.46677,-6.66590
80.85001,-13.47517,-6.67346
80.90000,-13.48343,-6.67040
80.95001,-13.49197,-6.67949
81.00001,-13.50023,-6.67869
81.05000,-13.50850,-6.68492
81.10001,-13.51703,-6.68400
81.15000,-13.52530,-6.69158
81.20001,-13.53343,-6.69158
81.25001,-13.54183,-6.69463
81.30000,-13.55023,-6.69801
81.35001,-13.55823,-6.70049
81.40000,-13.56663,-6.70359
81.45001,-13.57530,-6.70741
81.50001,-13.58357,-6.71186
81.55000,-13.59183,-6.71510
81.60001,-13.60023,-6.71781
81.65000,-13.60850,-6.72189
81.70001,-13.61690,-6.72494
81.75001,-13.62530,-6.72943
81.80000,-13.63357,-6.73132
81.85001,-13.64210,-6.73701
81.90000,-13.65037,-6.74065
81.95001,-13.65850,-6.74336
82.00001,-13.66703,-6.74719
82.05000,-13.67530,-6.74927
82.10001,-13.68343,-6.75421
82.15000,-13.69197,-6.75480
82.20001,-13.70037,-6.76072
82.25001,-13.70837,-6.76353
82.30000,-13.71690,-6.76605
82.35001,-13.72543,-6.77121
82.40000,-13.73357,-6.77609
82.45001,-13.74183,-6.77931
82.50001,-13.75037,-6.78403
82.55000,-13.75863,-6.78930
82.60001,-13.76690,-6.79248
82.65000,-13.77530,-6.79689
82.70001,-13.78370,-6.80197
82.75001,-13.79197,-6.80475
82.80000,-13.80023,-6.80978
82.85001,-13.80850,-6.81152
82.90000,-13.81690,-6.81744
82.95001,-13.82530,-6.82029
83.00001,-13.83343,-6.82554
83.05000,-13.84183,-6.82759
83.10001,-13.85023,-6.83353
83.15000,-13.85850,-6.83622
83.20001,-13.86677,-6.84017
83.25001,-13.87543,-6.84476
83.30000,-13.88357,-6.84975
83.35001,-13.89170,-6.85239
83.40000,-13.90037,-6.85706
83.45001,-13.90863,-6.86203
83.50001,-13.91677,-6.86583
83.55000,-13.92517,-6.86834
83.60001,-13.93357,-6.87409
83.65000,-13.94170,-6.87620
83.70001,-13.94997,-6.88147
83.75001,-13.95837,-6.88575
83.80000,-13.96650,-6.88982
83.85001,-13.97490,-6.89278
83.90000,-13.98330,-6.89884
83.95001,-13.99170,-6.90209
84.00001,-14.00023,-6.90787
84.05000,-14.00837,-6.91260
84.10001,-14.01663,-6.91566
84.15000,-14.02530,-6.92069
84.20001,-14.03343,-6.92655
84.25001,-14.04170,-6.92854
84.30000,-14.05037,-6.93518
84.35001,-14.05863,-6.93956
84.40000,-14.06677,-6.94489
84.45001,-14.07517,-6.94642
84.50001,-14.08370,-6.95486
84.55000,-14.09170,-6.95530
84.60001,-14.09997,-6.96152
84.65000,-14.10863,-6.96421
84.70001,-14.11677,-6.97199
84.75001,-14.12517,-6.97388
84.80000,-14.13357,-6.98055
84.85001,-14.14197,-6.98352
84.90000,-14.15037,-6.98970
84.95001,-14.15877,-6.99254
85.00001,-14.16703,-6.99869
85.05000,-14.17543,-6.99900
85.10001,-14.18370,-7.00839
85.15000,-14.19183,-7.00652
85.20001,-14.20037,-7.01366
85.25001,-14.20863,-7.01683
85.30000,-14.21663,-7.02203
85.35001,-14.22517,-7.02430
85.40000,-14.23343,-7.02937
85.45001,-14.24157,-7.03400
85.50001,-14.25023,-7.03900
85.55000,-14.25877,-7.04400
85.60001,-14.26676,-7.04998
85.65000,-14.27503,-7.05168
85.70001,-14.28356,-7.05801
85.75001,-14.29183,-7.06195
85.80000,-14.30023,-7.06819
85.85001,-14.30876,-7.07197
85.90000,-14.31703,-7.07708
85.95001,-14.32530,-7.08023
86.00001,-14.33356,-7.08626
86.05000,-14.34183,-7.08861
86.10001,-14.35023,-7.09455
86.15000,-14.35850,-7.09659
86.20001,-14.36663,-7.10386
86.25001,-14.37517,-7.10383
86.30000,-14.38356,-7.11253
86.35001,-14.39170,-7.11565
86.40000,-14.40010,-7.12079
86.45001,-14.40863,-7.12402
86.50001,-14.41690,-7.13076
86.55000,-14.42517,-7.13283
86.60001,-14.43370,-7.13773
86.65000,-14.44197,-7.14117
86.70001,-14.45010,-7.14657
86.75001,-14.45850,-7.14841
86.80000,-14.46690,-7.15390
86.85001,-14.47503,-7.15544
86.90000,-14.48330,-7.16186
86.95001,-14.49183,-7.16416
87.00001,-14.50010,-7.16811
87.05000,-14.50836,-7.17294
87.10001,-14.51676,-7.17706
87.15000,-14.52516,-7.17835
87.20001,-14.53356,-7.18465
87.25001,-14.54183,-7.18873
87.30000,-14.55023,-7.19011
87.35001,-14.55863,-7.19519
87.40000,-14.56690,-7.20019
87.45001,-14.57503,-7.20200
87.50001,-14.58370,-7.20523
87.55000,-14.59210,-7.21246
87.60001,-14.60010,-7.21255
87.65000,-14.60850,-7.21680
87.70001,-14.61690,-7.22012
87.75001,-14.62490,-7.22458
87.80000,-14.63316,-7.22542
87.85001,-14.64183,-7.23304
87.90000,-14.65010,-7.23671
87.95001,-14.65836,-7.24078
88.00001,-14.66690,-7.24419
88.05000,-14.67530,-7.25029
88.10001,-14.68356,-7.25204
88.15000,-14.69196,-7.25713
88.20001,-14.70023,-7.26023
88.25001,-14.70863,-7.26421
88.30000,-14.71703,-7.26675
88.35001,-14.72503,-7.26981
88.40000,-14.73370,-7.27276
88.45001,-14.74196,-7.27754
88.50001,-14.75010,-7.27973
88.55000,-14.75850,-7.28344
88.60001,-14.76690,-7.28795
88.65000,-14.77490,-7.28989
88.70001,-14.78343,-7.29529
88.75001,-14.79210,-7.30033
88.80000,-14.80010,-7.30474
88.85001,-14.80850,-7.30543
88.90000,-14.81716,-7.31206
88.95001,-14.82530,-7.31396
89.00001,-14.83356,-7.31836
89.05000,-14.84210,-7.32093
89.10001,-14.85036,-7.32551
89.15000,-14.85850,-7.32700
89.20001,-14.86690,-7.33295
89.25001,-14.87503,-7.33370
89.30000,-14.88343,-7.33859
89.35001,-14.89183,-7.34123
89.40000,-14.89996,-7.34677
89.45001,-14.90836,-7.34536
89.50001,-14.91690,-7.35439
89.55000,-14.92503,-7.35601
89.60001,-14.93343,-7.36067
89.65000,-14.94196,-7.36266
89.70001,-14.95010,-7.36994
89.75001,-14.95836,-7.37016
89.80000,-14.96690,-7.37659
89.85001,-14.97543,-7.38209
89.90000,-14.98356,-7.38699
89.95001,-14.99183,-7.38882
90.00001,-15.00036,-7.39377
90.04201,-15.00716,-7.39556
