Time,Extension,Load
(sec),(mm),(N)
0.00000,0.00000,-0.45702
0.05000,-0.00107,-0.45734
0.10000,-0.00547,-0.46368
0.15000,-0.01453,-0.47941
0.20000,-0.02493,-0.50763
0.25000,-0.03560,-0.52809
0.30000,-0.04560,-0.55346
0.35000,-0.05480,-0.57004
0.40000,-0.06427,-0.59212
0.45000,-0.07307,-0.60608
0.50000,-0.08173,-0.62521
0.55000,-0.09053,-0.63914
0.60000,-0.09920,-0.65874
0.65000,-0.10760,-0.66968
0.70000,-0.11600,-0.68901
0.75000,-0.12453,-0.69949
0.80000,-0.13280,-0.71887
0.85000,-0.14120,-0.72841
0.90000,-0.14973,-0.74675
0.95000,-0.15813,-0.75867
1.00000,-0.16653,-0.77530
1.05000,-0.17480,-0.78719
1.10000,-0.18333,-0.80230
1.15000,-0.19187,-0.81568
1.20000,-0.19987,-0.83030
1.25000,-0.20813,-0.84172
1.30000,-0.21667,-0.85764
1.35000,-0.22480,-0.86902
1.40000,-0.23293,-0.88349
1.45000,-0.24160,-0.89523
1.50000,-0.24987,-0.91120
1.55000,-0.25800,-0.92220
1.60000,-0.26640,-0.93532
1.65000,-0.27493,-0.94916
1.70000,-0.28320,-0.96220
1.75000,-0.29147,-0.97481
1.80000,-0.30013,-0.98701
1.85000,-0.30840,-1.00079
1.90000,-0.31680,-1.01345
1.95000,-0.32520,-1.02594
2.00000,-0.33347,-1.03874
2.05000,-0.34173,-1.05057
2.10000,-0.35000,-1.06473
2.15000,-0.35827,-1.07536
2.20000,-0.36667,-1.08907
2.25000,-0.37493,-1.10089
2.30000,-0.38307,-1.11456
2.35000,-0.39160,-1.12537
2.40000,-0.39987,-1.13812
2.45000,-0.40800,-1.15153
2.50000,-0.41653,-1.16339
2.55000,-0.42507,-1.17590
2.60000,-0.43333,-1.18870
2.65000,-0.44160,-1.20101
2.70000,-0.45027,-1.21353
2.75000,-0.45840,-1.22525
2.80000,-0.46667,-1.23806
2.85000,-0.47507,-1.25030
2.90000,-0.48333,-1.26187
2.95000,-0.49160,-1.27418
3.00000,-0.50000,-1.28606
3.05000,-0.50827,-1.29947
3.10000,-0.51653,-1.30923
3.15000,-0.52480,-1.32379
3.20000,-0.53293,-1.33371
3.25000,-0.54160,-1.34777
3.30000,-0.54987,-1.35755
3.35000,-0.55813,-1.37249
3.40000,-0.56653,-1.38169
3.45000,-0.57507,-1.39685
3.50000,-0.58307,-1.40577
3.55000,-0.59147,-1.42075
3.60000,-0.60013,-1.43093
3.65000,-0.60827,-1.44369
3.70000,-0.61640,-1.45496
3.75000,-0.62480,-1.46680
3.80000,-0.63307,-1.47897
3.85000,-0.64120,-1.49011
3.90000,-0.64960,-1.50181
3.95000,-0.65800,-1.51494
4.00000,-0.66640,-1.52586
4.05000,-0.67480,-1.53840
4.10000,-0.68320,-1.55052
4.15000,-0.69160,-1.56238
4.20000,-0.70000,-1.57401
4.25000,-0.70813,-1.58526
4.30000,-0.71666,-1.59785
4.35000,-0.72506,-1.60959
4.40000,-0.73320,-1.62151
4.45000,-0.74160,-1.63253
4.50000,-0.75013,-1.64531
4.55000,-0.75826,-1.65639
4.60000,-0.76640,-1.66790
4.65000,-0.77493,-1.67941
4.70000,-0.78320,-1.69170
4.75000,-0.79133,-1.70273
4.80000,-0.79973,-1.71415
4.85000,-0.80826,-1.72730
4.90000,-0.81653,-1.73738
4.95000,-0.82493,-1.75101
5.00000,-0.83333,-1.76050
5.05000,-0.84160,-1.77421
5.10000,-0.85000,-1.78395
5.15000,-0.85840,-1.79737
5.20000,-0.86680,-1.80791
5.25000,-0.87506,-1.82002
5.30000,-0.88346,-1.83159
5.35000,-0.89160,-1.84367
5.40000,-0.90000,-1.85343
5.45000,-0.90826,-1.86797
5.50000,-0.91640,-1.87641
5.55000,-0.92493,-1.88954
5.60000,-0.93320,-1.90017
5.65000,-0.94146,-1.91195
5.70000,-0.94986,-1.92431
5.75000,-0.95826,-1.93432
5.80000,-0.96653,-1.94813
5.85000,-0.97480,-1.95701
5.90000,-0.98346,-1.97167
5.95000,-0.99160,-1.98053
6.00000,-1.00000,-1.99323
6.05000,-1.00853,-2.00572
6.10000,-1.01680,-2.01449
6.15000,-1.02493,-2.02815
6.20000,-1.03333,-2.03736
6.25000,-1.04160,-2.05035
6.30000,-1.04986,-2.05951
6.35000,-1.05813,-2.07288
6.40000,-1.06626,-2.08124
6.45000,-1.07493,-2.09628
6.50000,-1.08333,-2.10424
6.55000,-1.09146,-2.11777
6.60000,-1.10000,-2.12787
6.65000,-1.10840,-2.13972
6.70000,-1.11653,-2.15071
6.75000,-1.12480,-2.16153
6.80000,-1.13346,-2.17266
6.85000,-1.14160,-2.18480
6.90000,-1.14973,-2.19486
6.95000,-1.15813,-2.20576
7.00000,-1.16640,-2.21630
7.05000,-1.17466,-2.22865
7.10000,-1.18306,-2.23687
7.15000,-1.19146,-2.25196
7.20000,-1.19973,-2.25911
7.25000,-1.20800,-2.27323
7.30000,-1.21640,-2.28190
7.35000,-1.22493,-2.29456
7.40000,-1.23320,-2.30455
7.45000,-1.24146,-2.31585
7.50000,-1.24986,-2.32585
7.55000,-1.25840,-2.33748
7.60000,-1.26653,-2.34790
7.65000,-1.27493,-2.35867
7.70000,-1.28333,-2.37074
7.75000,-1.29146,-2.37928
7.80000,-1.29960,-2.39179
7.85000,-1.30813,-2.40134
7.90000,-1.31653,-2.41283
7.95000,-1.32480,-2.42401
8.00000,-1.33320,-2.43414
8.05000,-1.34173,-2.44511
8.10000,-1.35000,-2.45625
8.15000,-1.35826,-2.46450
8.20000,-1.36680,-2.47758
8.25000,-1.37520,-2.48656
8.30000,-1.38346,-2.49776
8.35000,-1.39173,-2.50646
8.40000,-1.40013,-2.51569
8.45000,-1.40853,-2.52446
8.50000,-1.41666,-2.53528
8.55000,-1.42493,-2.53885
8.60000,-1.43346,-2.50389
8.65000,-1.44160,-2.43246
8.70000,-1.44973,-2.45951
8.75000,-1.45826,-2.47645
8.80000,-1.46653,-2.48920
8.85000,-1.47466,-2.48798
8.90000,-1.48320,-2.50008
8.95000,-1.49173,-2.45843
9.00000,-1.49986,-2.36200
9.05000,-1.50826,-2.39032
9.10000,-1.51680,-2.40143
9.15000,-1.52493,-2.41302
9.20000,-1.53320,-2.42827
9.25000,-1.54160,-2.43956
9.30000,-1.54986,-2.45967
9.35000,-1.55813,-2.46976
9.40000,-1.56640,-2.48847
9.45000,-1.57480,-2.50025
9.50000,-1.58306,-2.51775
9.55000,-1.59146,-2.53043
9.60000,-1.59960,-2.54632
9.65000,-1.60826,-2.55749
9.70000,-1.61666,-2.57214
9.75000,-1.62466,-2.58453
9.80000,-1.63320,-2.59841
9.85000,-1.64160,-2.60830
9.90000,-1.64973,-2.62387
9.95000,-1.65813,-2.63324
10.00000,-1.66680,-2.64810
10.05000,-1.67493,-2.65589
10.10000,-1.68320,-2.67107
10.15000,-1.69160,-2.68150
10.20000,-1.70000,-2.69354
10.25000,-1.70813,-2.70255
10.30000,-1.71640,-2.71465
10.35000,-1.72480,-2.72447
10.40000,-1.73293,-2.73580
10.45000,-1.74133,-2.74691
10.50000,-1.74973,-2.75570
10.55000,-1.75826,-2.76748
10.60000,-1.76666,-2.77711
10.65000,-1.77493,-2.78944
10.70000,-1.78333,-2.79615
10.75000,-1.79186,-2.80746
10.80000,-1.80000,-2.81311
10.85000,-1.80826,-2.82476
10.90000,-1.81693,-2.83245
10.95000,-1.82493,-2.84068
11.00000,-1.83306,-2.84794
11.05000,-1.84160,-2.85751
11.10000,-1.85000,-2.86939
11.15000,-1.85800,-2.87665
11.20000,-1.86640,-2.88735
11.25000,-1.87493,-2.89757
11.30000,-1.88320,-2.90762
11.35000,-1.89160,-2.91927
11.40000,-1.90000,-2.92883
11.45000,-1.90840,-2.93950
11.50000,-1.91666,-2.94752
11.55000,-1.92506,-2.95912
11.60000,-1.93346,-2.96778
11.65000,-1.94173,-2.97938
11.70000,-1.95000,-2.98724
11.75000,-1.95813,-2.99723
11.80000,-1.96653,-3.00460
11.85000,-1.97466,-3.01762
11.90000,-1.98293,-3.02380
11.95000,-1.99160,-3.03714
12.00000,-2.00000,-3.04408
12.05000,-2.00826,-3.05738
12.10000,-2.01680,-3.06048
12.15000,-2.02520,-3.07549
12.20000,-2.03333,-3.07910
12.25000,-2.04160,-3.09198
12.30000,-2.05026,-3.09719
12.35000,-2.05826,-3.10866
12.40000,-2.06653,-3.11436
12.45000,-2.07493,-3.12585
12.50000,-2.08333,-3.13466
12.55000,-2.09159,-3.13739
12.60000,-2.09986,-3.15696
12.65000,-2.10826,-3.15098
12.70000,-2.11666,-3.17380
12.75000,-2.12493,-3.17088
12.80000,-2.13319,-3.19065
12.85000,-2.14173,-3.18776
12.90000,-2.14999,-3.20739
12.95000,-2.15813,-3.20527
13.00000,-2.16666,-3.22310
13.05000,-2.17519,-3.22194
13.10000,-2.18333,-3.23892
13.15000,-2.19159,-3.23933
13.20000,-2.20026,-3.25624
13.25000,-2.20826,-3.25414
13.30000,-2.21653,-3.27227
13.35000,-2.22493,-3.27189
13.40000,-2.23333,-3.28966
13.45000,-2.24146,-3.29133
13.50000,-2.24973,-3.30418
13.55000,-2.25813,-3.31164
13.60000,-2.26626,-3.31955
13.65000,-2.27466,-3.32846
13.70000,-2.28306,-3.33877
13.75000,-2.29159,-3.34367
13.80000,-2.29999,-3.35930
13.85000,-2.30813,-3.36337
13.90000,-2.31653,-3.37362
13.95000,-2.32506,-3.38196
14.00000,-2.33319,-3.39148
14.05000,-2.34146,-3.40011
14.10000,-2.34999,-3.40909
14.15000,-2.35826,-3.41681
14.20000,-2.36639,-3.42943
14.25000,-2.37479,-3.43395
14.30000,-2.38319,-3.44775
14.35000,-2.39133,-3.45045
14.40000,-2.39959,-3.46744
14.45000,-2.40826,-3.46904
14.50000,-2.41666,-3.48521
14.55000,-2.42479,-3.48753
14.60000,-2.43346,-3.50437
14.65000,-2.44173,-3.50499
14.70000,-2.44999,-3.52171
14.75000,-2.45826,-3.52281
14.80000,-2.46679,-3.54071
14.85000,-2.47506,-3.53942
14.90000,-2.48333,-3.55928
14.95000,-2.49159,-3.55695
15.00000,-2.49999,-3.57504
15.05000,-2.50826,-3.57431
15.10000,-2.51639,-3.59349
15.15000,-2.52493,-3.59073
15.20000,-2.53319,-3.61138
15.25000,-2.54133,-3.60706
15.30000,-2.54986,-3.62726
15.35000,-2.55853,-3.62524
15.40000,-2.56653,-3.64426
15.45000,-2.57479,-3.64210
15.50000,-2.58346,-3.65998
15.55000,-2.59159,-3.66064
15.60000,-2.59986,-3.67623
15.65000,-2.60826,-3.67654
15.70000,-2.61666,-3.69376
15.75000,-2.62493,-3.69506
15.80000,-2.63319,-3.70880
15.85000,-2.64146,-3.71103
15.90000,-2.64986,-3.72463
15.95000,-2.65813,-3.72831
16.00000,-2.66626,-3.73935
16.05000,-2.67493,-3.74447
16.10000,-2.68333,-3.75644
16.15000,-2.69146,-3.76093
16.20000,-2.69999,-3.77062
16.25000,-2.70839,-3.77819
16.30000,-2.71639,-3.78699
16.35000,-2.72479,-3.79426
16.40000,-2.73346,-3.80120
16.45000,-2.74159,-3.80983
16.50000,-2.74986,-3.81844
16.55000,-2.75826,-3.82440
16.60000,-2.76653,-3.83455
16.65000,-2.77466,-3.84018
16.70000,-2.78293,-3.84890
16.75000,-2.79133,-3.85556
16.80000,-2.79959,-3.86365
16.85000,-2.80799,-3.87248
16.90000,-2.81639,-3.87713
16.95000,-2.82493,-3.88650
17.00000,-2.83333,-3.89469
17.05000,-2.84146,-3.90574
17.10000,-2.84999,-3.90689
17.15000,-2.85839,-3.91887
17.20000,-2.86653,-3.92475
17.25000,-2.87479,-3.93451
17.30000,-2.88333,-3.93849
17.35000,-2.89159,-3.95001
17.40000,-2.89973,-3.95386
17.45000,-2.90826,-3.96296
17.50000,-2.91653,-3.96948
17.55000,-2.92466,-3.97926
17.60000,-2.93306,-3.98306
17.65000,-2.94159,-3.99397
17.70000,-2.94986,-3.99784
17.75000,-2.95813,-4.00909
17.80000,-2.96679,-4.01507
17.85000,-2.97506,-4.02202
17.90000,-2.98333,-4.03107
17.95000,-2.99173,-4.03666
18.00000,-3.00013,-4.04395
18.05000,-3.00839,-4.05243
18.10000,-3.01666,-4.05692
18.15000,-3.02493,-4.07036
18.20000,-3.03346,-4.07014
18.25000,-3.04159,-4.08283
18.30000,-3.04973,-4.08503
18.35000,-3.05826,-4.09667
18.40000,-3.06653,-4.10105
18.45000,-3.07466,-4.10957
18.50000,-3.08319,-4.11354
18.55000,-3.09186,-4.12663
18.60000,-3.09999,-4.12570
18.65000,-3.10826,-4.14274
18.70000,-3.11679,-4.13755
18.75000,-3.12506,-4.15922
18.80000,-3.13333,-4.14917
18.85000,-3.14186,-4.17220
18.90000,-3.15013,-4.16588
18.95000,-3.15826,-4.18428
19.00000,-3.16653,-4.17966
19.05000,-3.17493,-4.19575
19.10000,-3.18346,-4.19506
19.15000,-3.19159,-4.20854
19.20000,-3.19973,-4.20752
19.25000,-3.20839,-4.22007
19.30000,-3.21666,-4.22322
19.35000,-3.22466,-4.23222
19.40000,-3.23319,-4.23511
19.45000,-3.24173,-4.24568
19.50000,-3.24986,-4.25050
19.55000,-3.25813,-4.25701
19.60000,-3.26679,-4.26351
19.65000,-3.27493,-4.26961
19.70000,-3.28306,-4.27692
19.75000,-3.29133,-4.28155
19.80000,-3.29973,-4.28823
19.85000,-3.30799,-4.29581
19.90000,-3.31639,-4.30107
19.95000,-3.32479,-4.30829
20.00000,-3.33319,-4.31433
20.05000,-3.34159,-4.32119
20.10000,-3.34986,-4.32709
20.15000,-3.35826,-4.33179
20.20000,-3.36666,-4.34043
20.25000,-3.37479,-4.34427
20.30000,-3.38319,-4.35378
20.35000,-3.39173,-4.35414
20.40000,-3.39999,-4.36905
20.45000,-3.40826,-4.36533
20.50000,-3.41679,-4.38016
20.55000,-3.42493,-4.37799
20.60000,-3.43306,-4.39218
20.65000,-3.44146,-4.38784
20.70000,-3.44986,-4.40460
20.75000,-3.45799,-4.40055
20.80000,-3.46639,-4.41510
20.85000,-3.47506,-4.41427
20.90000,-3.48332,-4.42643
20.95000,-3.49146,-4.42856
21.00000,-3.49999,-4.43581
21.05000,-3.50839,-4.44097
21.10000,-3.51666,-4.44825
21.15000,-3.52506,-4.45487
21.20000,-3.53346,-4.45730
21.25000,-3.54172,-4.46610
21.30000,-3.54999,-4.46880
21.35000,-3.55826,-4.47730
21.40000,-3.56679,-4.47924
21.45000,-3.57492,-4.48740
21.50000,-3.58306,-4.49138
21.55000,-3.59172,-4.49733
21.60000,-3.59999,-4.50261
21.65000,-3.60812,-4.50879
21.70000,-3.61652,-4.51430
21.75000,-3.62519,-4.51933
21.80000,-3.63332,-4.52642
21.85000,-3.64159,-4.53037
21.90000,-3.65026,-4.53677
21.95000,-3.65839,-4.54171
22.00000,-3.66666,-4.54485
22.05000,-3.67506,-4.55393
22.10000,-3.68332,-4.55584
22.15000,-3.69159,-4.56290
22.20000,-3.69986,-4.56741
22.25000,-3.70812,-4.57310
22.30000,-3.71666,-4.57695
22.35000,-3.72479,-4.58342
22.40000,-3.73292,-4.58798
22.45000,-3.74159,-4.59286
22.50000,-3.74999,-4.60044
22.55000,-3.75812,-4.60190
22.60000,-3.76652,-4.61149
22.65000,-3.77519,-4.61394
22.70000,-3.78319,-4.62111
22.75000,-3.79159,-4.62416
22.80000,-3.80012,-4.63083
22.85000,-3.80826,-4.63464
22.90000,-3.81652,-4.64036
22.95000,-3.82479,-4.64324
23.00000,-3.83319,-4.64916
23.05000,-3.84132,-4.65388
23.10000,-3.84972,-4.65952
23.15000,-3.85799,-4.66261
23.20000,-3.86639,-4.66858
23.25000,-3.87466,-4.67386
23.30000,-3.88306,-4.67916
23.35000,-3.89159,-4.68285
23.40000,-3.89986,-4.68852
23.45000,-3.90812,-4.69483
23.50000,-3.91652,-4.69744
23.55000,-3.92506,-4.70313
23.60000,-3.93319,-4.70930
23.65000,-3.94159,-4.71353
23.70000,-3.94999,-4.71729
23.75000,-3.95812,-4.72354
23.80000,-3.96626,-4.72636
23.85000,-3.97492,-4.73168
23.90000,-3.98332,-4.73683
23.95000,-3.99132,-4.73991
24.00000,-3.99986,-4.74649
24.05000,-4.00839,-4.75020
24.10000,-4.01652,-4.75635
24.15000,-4.02492,-4.75723
24.20000,-4.03346,-4.76651
24.25000,-4.04172,-4.76704
24.30000,-4.04999,-4.77335
24.35000,-4.05839,-4.77547
24.40000,-4.06679,-4.78388
24.45000,-4.07519,-4.78460
24.50000,-4.08332,-4.79173
24.55000,-4.09146,-4.79327
24.60000,-4.09999,-4.80013
24.65000,-4.10826,-4.80152
24.70000,-4.11639,-4.80764
24.75000,-4.12492,-4.81086
24.80000,-4.13319,-4.81527
24.85000,-4.14132,-4.81807
24.90000,-4.14986,-4.82302
24.95000,-4.15839,-4.82851
25.00000,-4.16652,-4.83138
25.05000,-4.17492,-4.83606
25.10000,-4.18346,-4.83745
25.15000,-4.19172,-4.84650
25.20000,-4.19999,-4.84460
25.25000,-4.20839,-4.85162
25.30000,-4.21666,-4.85328
25.35000,-4.22492,-4.85862
25.40000,-4.23319,-4.85975
25.45000,-4.24146,-4.86469
25.50000,-4.24999,-4.86871
25.55000,-4.25826,-4.87396
25.60000,-4.26626,-4.87419
25.65000,-4.27492,-4.88189
25.70000,-4.28319,-4.88348
25.75000,-4.29132,-4.88981
25.80000,-4.29986,-4.88988
25.85000,-4.30839,-4.89676
25.90000,-4.31652,-4.90139
25.95000,-4.32479,-4.90173
26.00000,-4.33346,-4.90696
26.05000,-4.34172,-4.91156
26.10000,-4.34986,-4.91353
26.15000,-4.35826,-4.91778
26.20000,-4.36652,-4.92111
26.25000,-4.37479,-4.92748
26.30000,-4.38319,-4.92400
26.35000,-4.39146,-4.93832
26.40000,-4.39972,-4.93207
26.45000,-4.40812,-4.94419
26.50000,-4.41639,-4.94155
26.55000,-4.42492,-4.95013
26.60000,-4.43332,-4.95118
26.65000,-4.44146,-4.95938
26.70000,-4.44986,-4.95724
26.75000,-4.45839,-4.96747
26.80000,-4.46652,-4.96524
26.85000,-4.47479,-4.97481
26.90000,-4.48346,-4.96882
26.95000,-4.49159,-4.98673
27.00000,-4.49972,-4.97595
27.05000,-4.50826,-4.99090
27.10000,-4.51666,-4.98692
27.15000,-4.52466,-4.99782
27.20000,-4.53306,-4.99558
27.25000,-4.54172,-5.00429
27.30000,-4.54986,-5.00483
27.35000,-4.55826,-5.01412
27.40000,-4.56679,-5.01163
27.45000,-4.57506,-5.02297
27.50000,-4.58332,-5.01782
27.55000,-4.59172,-5.03335
27.60000,-4.60012,-5.02494
27.65000,-4.60839,-5.03866
27.70000,-4.61666,-5.03564
27.75000,-4.62479,-5.04441
27.80000,-4.63332,-5.04317
27.85000,-4.64159,-5.05062
27.90000,-4.64986,-5.05329
27.95000,-4.65826,-5.05687
28.00000,-4.66666,-5.06127
28.05000,-4.67479,-5.06443
28.10000,-4.68332,-5.06473
28.15000,-4.69186,-5.07842
28.20000,-4.69999,-5.06809
28.25000,-4.70839,-5.08402
28.30000,-4.71692,-5.08085
28.35000,-4.72506,-5.08753
28.40000,-4.73332,-5.08782
28.45000,-4.74172,-5.09539
28.50000,-4.74999,-5.09574
28.55000,-4.75826,-5.10144
28.60000,-4.76652,-5.10067
28.65000,-4.77479,-5.10793
28.70000,-4.78319,-5.11037
28.75000,-4.79145,-5.11199
28.80000,-4.79959,-5.11626
28.85000,-4.80812,-5.11989
28.90000,-4.81666,-5.12649
28.95000,-4.82479,-5.12479
29.00000,-4.83332,-5.13320
29.05000,-4.84172,-5.13361
29.10000,-4.84972,-5.14003
29.15000,-4.85812,-5.13694
29.20000,-4.86679,-5.14536
29.25000,-4.87492,-5.14752
29.30000,-4.88305,-5.14603
29.35000,-4.89159,-5.15661
29.40000,-4.89985,-5.15147
29.45000,-4.90812,-5.16362
29.50000,-4.91652,-5.15861
29.55000,-4.92479,-5.16793
29.60000,-4.93305,-5.16539
29.65000,-4.94145,-5.17472
29.70000,-4.94972,-5.17120
29.75000,-4.95825,-5.18073
29.80000,-4.96679,-5.17789
29.85000,-4.97492,-5.19068
29.90000,-4.98332,-5.17663
29.95000,-4.99172,-5.19916
30.00000,-4.99985,-5.18521
30.05000,-5.00812,-5.20233
30.10000,-5.01679,-5.19271
30.15000,-5.02479,-5.20596
30.20000,-5.03305,-5.20009
30.25000,-5.04159,-5.21105
30.30000,-5.04985,-5.20545
30.35000,-5.05799,-5.21769
30.40000,-5.06639,-5.21044
30.45000,-5.07492,-5.22392
30.50000,-5.08319,-5.21728
30.55000,-5.09145,-5.22531
30.60000,-5.09999,-5.22969
30.65000,-5.10839,-5.22775
30.70000,-5.11665,-5.23692
30.75000,-5.12505,-5.23436
30.80000,-5.13332,-5.24196
30.85000,-5.14159,-5.24087
30.90000,-5.14985,-5.24642
30.95000,-5.15812,-5.24616
31.00000,-5.16665,-5.25204
31.05000,-5.17492,-5.25351
31.10000,-5.18305,-5.25731
31.15000,-5.19159,-5.25394
31.20000,-5.19985,-5.27031
31.25000,-5.20812,-5.25588
31.30000,-5.21652,-5.27303
31.35000,-5.22505,-5.26563
31.40000,-5.23319,-5.27622
31.45000,-5.24159,-5.27124
31.50000,-5.25012,-5.27856
31.55000,-5.25839,-5.27891
31.60000,-5.26652,-5.28387
31.65000,-5.27492,-5.28237
31.70000,-5.28319,-5.28985
31.75000,-5.29145,-5.28729
31.80000,-5.29985,-5.29629
31.85000,-5.30812,-5.29260
31.90000,-5.31652,-5.29998
31.95000,-5.32479,-5.30142
32.00000,-5.33292,-5.30324
32.05000,-5.34159,-5.30482
32.10000,-5.34999,-5.31056
32.15000,-5.35812,-5.31206
32.20000,-5.36665,-5.31533
32.25000,-5.37505,-5.31507
32.30000,-5.38319,-5.32411
32.35000,-5.39145,-5.32085
32.40000,-5.40012,-5.32592
32.45000,-5.40825,-5.33003
32.50000,-5.41652,-5.33005
32.55000,-5.42492,-5.33481
32.60000,-5.43319,-5.33494
32.65000,-5.44132,-5.33887
32.70000,-5.44972,-5.34248
32.75000,-5.45812,-5.34119
32.80000,-5.46639,-5.34828
32.85000,-5.47479,-5.34762
32.90000,-5.48305,-5.35426
32.95000,-5.49159,-5.35158
33.00000,-5.49999,-5.35899
33.05000,-5.50812,-5.36157
33.10000,-5.51665,-5.36015
33.15000,-5.52492,-5.36563
33.20000,-5.53305,-5.36855
33.25000,-5.54145,-5.36851
33.30000,-5.55012,-5.37359
33.35000,-5.55812,-5.37332
33.40000,-5.56639,-5.37971
33.45000,-5.57492,-5.37713
33.50000,-5.58319,-5.38382
33.55000,-5.59132,-5.38193
33.60000,-5.59972,-5.38806
33.65000,-5.60839,-5.38826
33.70000,-5.61652,-5.39242
33.75000,-5.62492,-5.39292
33.80000,-5.63345,-5.39929
33.85000,-5.64172,-5.39759
33.90000,-5.64999,-5.40125
33.95000,-5.65825,-5.40290
34.00000,-5.66665,-5.40521
34.05000,-5.67505,-5.40628
34.10000,-5.68332,-5.40884
34.15000,-5.69159,-5.41269
34.20000,-5.70012,-5.41324
34.25000,-5.70839,-5.41680
34.30000,-5.71625,-5.41779
34.35000,-5.72492,-5.41982
34.40000,-5.73319,-5.42276
34.45000,-5.74145,-5.42224
34.50000,-5.74999,-5.42808
34.55000,-5.75839,-5.42934
34.60000,-5.76652,-5.43062
34.65000,-5.77492,-5.43207
34.70000,-5.78345,-5.43660
34.75000,-5.79172,-5.43645
34.80000,-5.79999,-5.43916
34.85000,-5.80852,-5.44116
34.90000,-5.81679,-5.44449
34.95000,-5.82492,-5.44289
35.00000,-5.83319,-5.44677
35.05000,-5.84145,-5.44752
35.10000,-5.84985,-5.45039
35.15000,-5.85812,-5.45063
35.20000,-5.86625,-5.45357
35.25000,-5.87492,-5.45497
35.30000,-5.88332,-5.45715
35.35000,-5.89145,-5.46000
35.40000,-5.89999,-5.46132
35.45000,-5.90852,-5.46358
35.50000,-5.91652,-5.46609
35.55000,-5.92492,-5.46678
35.60000,-5.93345,-5.46973
35.65000,-5.94145,-5.47014
35.70000,-5.94972,-5.47123
35.75000,-5.95812,-5.47377
35.80000,-5.96639,-5.47453
35.85000,-5.97465,-5.47626
35.90000,-5.98319,-5.47907
35.95000,-5.99145,-5.48033
36.00000,-5.99972,-5.48188
36.05000,-6.00812,-5.48279
36.10000,-6.01652,-5.48707
36.15000,-6.02492,-5.48539
36.20000,-6.03332,-5.49039
36.25000,-6.04145,-5.49092
36.30000,-6.04999,-5.49243
36.35000,-6.05839,-5.49429
36.40000,-6.06652,-5.49742
36.45000,-6.07479,-5.49739
36.50000,-6.08345,-5.49977
36.55000,-6.09159,-5.50127
36.60000,-6.09972,-5.50259
36.65000,-6.10825,-5.50323
36.70000,-6.11665,-5.50642
36.75000,-6.12465,-5.50569
36.80000,-6.13305,-5.50870
36.85000,-6.14158,-5.50953
36.90000,-6.14972,-5.51177
36.95000,-6.15812,-5.51298
37.00000,-6.16665,-5.51626
37.05000,-6.17505,-5.51625
37.10000,-6.18332,-5.51908
37.15000,-6.19172,-5.52128
37.20000,-6.19998,-5.52022
37.25000,-6.20838,-5.52360
37.30000,-6.21665,-5.52348
37.35000,-6.22492,-5.52549
37.40000,-6.23345,-5.52561
37.45000,-6.24172,-5.52838
37.50000,-6.24972,-5.52745
37.55000,-6.25825,-5.53047
37.60000,-6.26652,-5.53112
37.65000,-6.27465,-5.53311
37.70000,-6.28318,-5.53439
37.75000,-6.29172,-5.53872
37.80000,-6.29985,-5.53755
37.85000,-6.30812,-5.54068
37.90000,-6.31678,-5.54101
37.95000,-6.32492,-5.54420
38.00000,-6.33332,-5.54433
38.05000,-6.34172,-5.54766
38.10000,-6.34998,-5.54825
38.15000,-6.35825,-5.54956
38.20000,-6.36665,-5.55244
38.25000,-6.37492,-5.55334
38.30000,-6.38332,-5.55544
38.35000,-6.39158,-5.55614
38.40000,-6.39972,-5.55817
38.45000,-6.40838,-5.55940
38.50000,-6.41665,-5.56249
38.55000,-6.42478,-5.56273
38.60000,-6.43332,-5.56480
38.65000,-6.44172,-5.56614
38.70000,-6.44985,-5.56905
38.75000,-6.45825,-5.56743
38.80000,-6.46678,-5.57192
38.85000,-6.47492,-5.57205
38.90000,-6.48305,-5.57426
38.95000,-6.49158,-5.57353
39.00000,-6.49985,-5.57829
39.05000,-6.50812,-5.57728
39.10000,-6.51638,-5.58000
39.15000,-6.52478,-5.58025
39.20000,-6.53292,-5.58350
39.25000,-6.54132,-5.58349
39.30000,-6.54972,-5.58715
39.35000,-6.55812,-5.58730
39.40000,-6.56665,-5.59126
39.45000,-6.57492,-5.59143
39.50000,-6.58345,-5.59345
39.55000,-6.59172,-5.59506
39.60000,-6.59985,-5.59679
39.65000,-6.60798,-5.59546
39.70000,-6.61665,-5.59872
39.75000,-6.62478,-5.59937
39.80000,-6.63305,-5.60112
39.85000,-6.64158,-5.60141
39.90000,-6.64985,-5.60474
39.95000,-6.65812,-5.60485
40.00000,-6.66638,-5.60598
40.05000,-6.67492,-5.60739
40.10000,-6.68318,-5.60999
40.15000,-6.69158,-5.61030
40.20000,-6.70012,-5.61392
40.25000,-6.70838,-5.61428
40.30000,-6.71665,-5.61761
40.35000,-6.72505,-5.61828
40.40000,-6.73345,-5.62035
40.45000,-6.74172,-5.62119
40.50000,-6.74998,-5.62380
40.55000,-6.75825,-5.62343
40.60000,-6.76665,-5.62645
40.65000,-6.77492,-5.62796
40.70000,-6.78305,-5.62984
40.75000,-6.79158,-5.63039
40.80000,-6.79998,-5.63418
40.85000,-6.80798,-5.63297
40.90000,-6.81665,-5.63684
40.95000,-6.82518,-5.63745
41.00000,-6.83318,-5.64023
41.05000,-6.84158,-5.63948
41.10000,-6.85025,-5.64418
41.15000,-6.85838,-5.64314
41.20000,-6.86665,-5.64600
41.25000,-6.87505,-5.64631
41.30000,-6.88332,-5.64876
41.35000,-6.89158,-5.64867
41.40000,-6.89998,-5.65173
41.45000,-6.90825,-5.65126
41.50000,-6.91665,-5.65470
41.55000,-6.92478,-5.65379
41.60000,-6.93292,-5.65614
41.65000,-6.94158,-5.65558
41.70000,-6.94985,-5.65999
41.75000,-6.95812,-5.65953
41.80000,-6.96665,-5.66220
41.85000,-6.97505,-5.66321
41.90000,-6.98318,-5.66485
41.95000,-6.99158,-5.66591
42.00000,-7.00025,-5.66808
42.05000,-7.00838,-5.67078
42.10000,-7.01665,-5.67101
42.15000,-7.02505,-5.67217
42.20000,-7.03332,-5.67435
42.25000,-7.04145,-5.67516
42.30000,-7.04985,-5.67614
42.35000,-7.05825,-5.67814
42.40000,-7.06652,-5.67960
42.45000,-7.07478,-5.68197
42.50000,-7.08318,-5.68279
42.55000,-7.09158,-5.68504
42.60000,-7.09985,-5.68564
42.65000,-7.10812,-5.68842
42.70000,-7.11652,-5.68791
42.75000,-7.12505,-5.69235
42.80000,-7.13318,-5.69261
42.85000,-7.14158,-5.69418
42.90000,-7.15012,-5.69496
42.95000,-7.15825,-5.69795
43.00000,-7.16638,-5.69762
43.05000,-7.17492,-5.69986
43.10000,-7.18332,-5.70183
43.15000,-7.19132,-5.70308
43.20000,-7.19972,-5.70401
43.25000,-7.20825,-5.70726
43.30000,-7.21638,-5.70826
43.35000,-7.22478,-5.71049
43.40000,-7.23332,-5.71218
43.45000,-7.24158,-5.71476
43.50000,-7.24985,-5.71540
43.55000,-7.25825,-5.71784
43.60000,-7.26652,-5.71869
43.65000,-7.27492,-5.72155
43.70000,-7.28318,-5.72259
43.75000,-7.29132,-5.72429
43.80000,-7.29985,-5.72580
43.85000,-7.30825,-5.72926
43.90000,-7.31638,-5.72934
43.95000,-7.32492,-5.73069
44.00000,-7.33318,-5.73369
44.05000,-7.34132,-5.73397
44.10000,-7.34985,-5.73647
44.15000,-7.35852,-5.73830
44.20000,-7.36665,-5.74161
44.25000,-7.37492,-5.74093
44.30000,-7.38358,-5.74367
44.35000,-7.39185,-5.74475
44.40000,-7.39998,-5.74687
44.45000,-7.40852,-5.74790
44.50000,-7.41665,-5.74960
44.55000,-7.42492,-5.74992
44.60000,-7.43318,-5.75236
44.65000,-7.44158,-5.75269
44.70000,-7.44998,-5.75554
44.75000,-7.45825,-5.75740
44.80000,-7.46652,-5.75780
44.85000,-7.47505,-5.75991
44.90000,-7.48345,-5.76139
44.95000,-7.49158,-5.76401
45.00000,-7.49998,-5.76381
45.05000,-7.50851,-5.76713
45.10000,-7.51665,-5.76821
45.15000,-7.52492,-5.77012
45.20000,-7.53345,-5.77054
45.25000,-7.54158,-5.77450
45.30000,-7.54985,-5.77413
45.35000,-7.55825,-5.77675
45.40000,-7.56651,-5.77809
45.45000,-7.57478,-5.78052
45.50000,-7.58305,-5.78163
45.55000,-7.59158,-5.78379
45.60000,-7.59971,-5.78598
45.65000,-7.60811,-5.78723
45.70000,-7.61638,-5.78981
45.75000,-7.62491,-5.79031
45.80000,-7.63331,-5.79448
45.85000,-7.64145,-5.79518
45.90000,-7.64998,-5.79692
45.95000,-7.65838,-5.79898
46.00000,-7.66651,-5.80202
46.05000,-7.67478,-5.80229
46.10000,-7.68331,-5.80465
46.15000,-7.69158,-5.80724
46.20000,-7.69971,-5.80817
46.25000,-7.70825,-5.80950
46.30000,-7.71665,-5.81274
46.35000,-7.72465,-5.81356
46.40000,-7.73305,-5.81536
46.45000,-7.74171,-5.81776
46.50000,-7.74985,-5.82058
46.55000,-7.75825,-5.82201
46.60000,-7.76678,-5.82517
46.65000,-7.77505,-5.82670
46.70000,-7.78331,-5.83027
46.75000,-7.79171,-5.83156
46.80000,-7.80011,-5.83443
46.85000,-7.80851,-5.83680
46.90000,-7.81678,-5.83969
46.95000,-7.82491,-5.83994
47.00000,-7.83331,-5.84339
47.05000,-7.84158,-5.84497
47.10000,-7.84971,-5.84738
47.15000,-7.85838,-5.84877
47.20000,-7.86665,-5.85229
47.25000,-7.87478,-5.85347
47.30000,-7.88331,-5.85612
47.35000,-7.89185,-5.85891
47.40000,-7.89998,-5.86138
47.45000,-7.90825,-5.86262
47.50000,-7.91691,-5.86600
47.55000,-7.92491,-5.86670
47.60000,-7.93318,-5.86954
47.65000,-7.94171,-5.87089
47.70000,-7.94998,-5.87426
47.75000,-7.95825,-5.87540
47.80000,-7.96665,-5.87906
47.85000,-7.97491,-5.87981
47.90000,-7.98331,-5.88255
47.95000,-7.99158,-5.88394
48.00000,-7.99971,-5.88511
48.05000,-8.00838,-5.88786
48.10000,-8.01665,-5.89079
48.15000,-8.02478,-5.89250
48.20000,-8.03331,-5.89338
48.25000,-8.04171,-5.89701
48.30000,-8.04985,-5.89867
48.35000,-8.05811,-5.90060
48.40000,-8.06678,-5.90223
48.45000,-8.07505,-5.90607
48.50000,-8.08318,-5.90690
48.55000,-8.09158,-5.90865
48.60000,-8.09985,-5.91056
48.65000,-8.10811,-5.91260
48.70000,-8.11638,-5.91266
48.75000,-8.12478,-5.91587
48.80000,-8.13305,-5.91628
48.85000,-8.14145,-5.92061
48.90000,-8.14971,-5.92100
48.95000,-8.15825,-5.92545
49.00000,-8.16651,-5.92670
49.05000,-8.17478,-5.92896
49.10000,-8.18331,-5.93188
49.15000,-8.19171,-5.93298
49.20000,-8.19985,-5.93688
49.25000,-8.20825,-5.93641
49.30000,-8.21691,-5.93973
49.35000,-8.22491,-5.94139
49.40000,-8.23305,-5.94215
49.45000,-8.24158,-5.94491
49.50000,-8.24998,-5.94771
49.55000,-8.25811,-5.94870
49.60000,-8.26638,-5.95098
49.65000,-8.27505,-5.95339
49.70000,-8.28318,-5.95607
49.75000,-8.29145,-5.95816
49.80000,-8.29998,-5.96028
49.85000,-8.30838,-5.96382
49.90000,-8.31665,-5.96461
49.95000,-8.32491,-5.96730
50.00000,-8.33345,-5.96841
50.05000,-8.34171,-5.97189
50.10000,-8.34998,-5.97411
50.15000,-8.35825,-5.97444
50.20000,-8.36665,-5.97870
50.25000,-8.37491,-5.97860
50.30000,-8.38305,-5.98191
50.35000,-8.39171,-5.98271
50.40000,-8.39998,-5.98543
50.45000,-8.40811,-5.98728
50.50000,-8.41665,-5.98925
50.55000,-8.42531,-5.99142
50.60000,-8.43331,-5.99541
50.65000,-8.44158,-5.99395
50.70000,-8.45011,-5.99953
50.75000,-8.45825,-5.99696
50.80000,-8.46665,-6.00299
50.85000,-8.47505,-6.00138
50.90000,-8.48345,-6.00419
50.95000,-8.49171,-6.00902
51.00000,-8.49985,-6.00647
51.05000,-8.50825,-6.01220
51.10000,-8.51665,-6.01082
51.15000,-8.52491,-6.01553
51.20000,-8.53305,-6.01526
51.25000,-8.54171,-6.01827
51.30000,-8.54998,-6.02170
51.35000,-8.55811,-6.02217
51.40000,-8.56665,-6.02531
51.45000,-8.57518,-6.02926
51.50000,-8.58318,-6.03051
51.55000,-8.59145,-6.03116
51.60000,-8.60011,-6.03641
51.65000,-8.60825,-6.03488
51.70000,-8.61638,-6.04151
51.75000,-8.62491,-6.03950
51.80000,-8.63318,-6.04657
51.85000,-8.64145,-6.04541
51.90000,-8.64985,-6.05084
51.95000,-8.65811,-6.05165
52.00000,-8.66638,-6.05436
52.05000,-8.67478,-6.05735
52.10000,-8.68291,-6.05903
52.15000,-8.69145,-6.06161
52.20000,-8.69985,-6.06603
52.25000,-8.70811,-6.06619
52.30000,-8.71665,-6.07100
52.35000,-8.72518,-6.07401
52.40000,-8.73318,-6.07287
52.45000,-8.74145,-6.07806
52.50000,-8.75011,-6.07698
52.55000,-8.75838,-6.08434
52.60000,-8.76651,-6.08301
52.65000,-8.77491,-6.08830
52.70000,-8.78331,-6.08765
52.75000,-8.79145,-6.09185
52.80000,-8.79971,-6.09337
52.85000,-8.80838,-6.09541
52.90000,-8.81651,-6.09999
52.95000,-8.82478,-6.10011
53.00000,-8.83345,-6.10497
53.05000,-8.84185,-6.10605
53.10000,-8.84998,-6.10996
53.15000,-8.85824,-6.11248
53.20000,-8.86678,-6.11435
53.25000,-8.87518,-6.11787
53.30000,-8.88331,-6.11947
53.35000,-8.89158,-6.12218
53.40000,-8.90011,-6.12510
53.45000,-8.90824,-6.12617
53.50000,-8.91638,-6.12822
53.55000,-8.92491,-6.13089
53.60000,-8.93331,-6.13446
53.65000,-8.94144,-6.13620
53.70000,-8.94998,-6.13908
53.75000,-8.95851,-6.14205
53.80000,-8.96665,-6.14601
53.85000,-8.97491,-6.14765
53.90000,-8.98345,-6.15105
53.95000,-8.99171,-6.15188
54.00000,-9.00011,-6.15707
54.05000,-9.00838,-6.15805
54.10000,-9.01678,-6.16014
54.15000,-9.02504,-6.16221
54.20000,-9.03331,-6.16628
54.25000,-9.04158,-6.16714
54.30000,-9.04998,-6.17064
54.35000,-9.05824,-6.17270
54.40000,-9.06638,-6.17543
54.45000,-9.07491,-6.17645
54.50000,-9.08331,-6.18273
54.55000,-9.09144,-6.18335
54.60000,-9.09998,-6.18642
54.65000,-9.10838,-6.18948
54.70000,-9.11651,-6.19238
54.75000,-9.12491,-6.19382
54.80000,-9.13358,-6.19737
54.85000,-9.14171,-6.20134
54.90000,-9.14984,-6.20158
54.95000,-9.15838,-6.20532
55.00000,-9.16664,-6.20674
55.05000,-9.17478,-6.21155
55.10000,-9.18304,-6.21027
55.15000,-9.19144,-6.21565
55.20000,-9.19971,-6.21619
55.25000,-9.20811,-6.22052
55.30000,-9.21638,-6.22146
55.35000,-9.22491,-6.22514
55.40000,-9.23331,-6.22783
55.45000,-9.24144,-6.23136
55.50000,-9.24984,-6.23155
55.55000,-9.25838,-6.23554
55.60000,-9.26651,-6.23811
55.65000,-9.27478,-6.24150
55.70000,-9.28344,-6.24268
55.75000,-9.29158,-6.24851
55.80000,-9.29984,-6.24874
55.85000,-9.30838,-6.25245
55.90000,-9.31664,-6.25495
55.95000,-9.32464,-6.25740
56.00000,-9.33304,-6.25929
56.05000,-9.34171,-6.26287
56.10000,-9.34984,-6.26650
56.15000,-9.35824,-6.26969
56.20000,-9.36678,-6.27354
56.25000,-9.37518,-6.27608
56.30000,-9.38331,-6.28011
56.35000,-9.39171,-6.28238
56.40000,-9.40011,-6.28488
56.45000,-9.40838,-6.28810
56.50000,-9.41664,-6.29178
56.55000,-9.42491,-6.29270
56.60000,-9.43344,-6.29755
56.65000,-9.44171,-6.30021
56.70000,-9.44971,-6.30252
56.75000,-9.45824,-6.30561
56.80000,-9.46664,-6.30993
56.85000,-9.47478,-6.31107
56.90000,-9.48331,-6.31531
56.95000,-9.49184,-6.31819
57.00000,-9.49998,-6.32209
57.05000,-9.50824,-6.32361
57.10000,-9.51691,-6.32748
57.15000,-9.52504,-6.33121
57.20000,-9.53331,-6.33300
57.25000,-9.54171,-6.33684
57.30000,-9.55011,-6.33936
57.35000,-9.55838,-6.34404
57.40000,-9.56664,-6.34609
57.45000,-9.57491,-6.34929
57.50000,-9.58331,-6.35184
57.55000,-9.59158,-6.35456
57.60000,-9.59971,-6.35898
57.65000,-9.60838,-6.35971
57.70000,-9.61664,-6.36483
57.75000,-9.62478,-6.36777
57.80000,-9.63331,-6.37053
57.85000,-9.64184,-6.37480
57.90000,-9.64984,-6.37897
57.95000,-9.65824,-6.37864
58.00000,-9.66678,-6.38471
58.05000,-9.67491,-6.38610
58.10000,-9.68304,-6.38897
58.15000,-9.69158,-6.39025
58.20000,-9.69984,-6.39522
58.25000,-9.70798,-6.39554
58.30000,-9.71638,-6.39994
58.35000,-9.72478,-6.40278
58.40000,-9.73291,-6.40440
58.45000,-9.74131,-6.40842
58.50000,-9.74971,-6.41132
58.55000,-9.75824,-6.41509
58.60000,-9.76664,-6.41723
58.65000,-9.77478,-6.42091
58.70000,-9.78331,-6.42289
58.75000,-9.79184,-6.42648
58.80000,-9.79998,-6.42880
58.85000,-9.80824,-6.43115
58.90000,-9.81678,-6.43290
58.95000,-9.82491,-6.43601
59.00000,-9.83304,-6.43619
59.05000,-9.84158,-6.43850
59.10000,-9.84998,-6.44221
59.15000,-9.85811,-6.44392
59.20000,-9.86651,-6.44568
59.25000,-9.87504,-6.44993
59.30000,-9.88331,-6.45292
59.35000,-9.89158,-6.45502
59.40000,-9.90011,-6.45817
59.45000,-9.90838,-6.46105
59.50000,-9.91664,-6.46363
59.55000,-9.92491,-6.46498
59.60000,-9.93331,-6.46593
59.65000,-9.94171,-6.47095
59.70000,-9.94984,-6.47213
59.75000,-9.95824,-6.47440
59.80000,-9.96678,-6.47779
59.85000,-9.97504,-6.48138
59.90000,-9.98304,-6.48038
59.95000,-9.99158,-6.48324
60.00000,-9.99984,-6.48597
60.05000,-10.00811,-6.48668
60.10000,-10.01651,-6.49186
60.15000,-10.02518,-6.49283
60.20000,-10.03331,-6.49753
60.25000,-10.04171,-6.49848
60.30000,-10.05011,-6.50297
60.35000,-10.05838,-6.50298
60.40000,-10.06664,-6.50735
60.45000,-10.07491,-6.50895
60.50000,-10.08344,-6.51236
60.55000,-10.09171,-6.51381
60.60000,-10.09998,-6.51769
60.65000,-10.10824,-6.51786
60.70000,-10.11678,-6.52245
60.75000,-10.12504,-6.52542
60.80000,-10.13318,-6.52722
60.85000,-10.14171,-6.52854
60.90000,-10.14998,-6.53252
60.95000,-10.15811,-6.53444
61.00000,-10.16664,-6.53692
61.05000,-10.17518,-6.54038
61.10000,-10.18331,-6.54415
61.15000,-10.19158,-6.54475
61.20000,-10.20024,-6.54775
61.25000,-10.20837,-6.55171
61.30000,-10.21651,-6.55348
61.35000,-10.22491,-6.55518
61.40000,-10.23318,-6.55742
61.45000,-10.24144,-6.56139
61.50000,-10.24971,-6.56107
61.55000,-10.25811,-6.56597
61.60000,-10.26637,-6.56574
61.65000,-10.27478,-6.57204
61.70000,-10.28317,-6.57118
61.75000,-10.29158,-6.57663
61.80000,-10.29998,-6.57656
61.85000,-10.30824,-6.58264
61.90000,-10.31664,-6.58028
61.95000,-10.32517,-6.58780
62.00000,-10.33317,-6.58499
62.05000,-10.34144,-6.59089
62.10000,-10.35011,-6.58813
62.15000,-10.35824,-6.59815
62.20000,-10.36651,-6.59197
62.25000,-10.37491,-6.60151
62.30000,-10.38331,-6.59886
62.35000,-10.39144,-6.60570
62.40000,-10.39984,-6.60302
62.45000,-10.40837,-6.61092
62.50000,-10.41664,-6.60967
62.55000,-10.42491,-6.61364
62.60000,-10.43344,-6.61686
62.65000,-10.44171,-6.61955
62.70000,-10.44997,-6.62150
62.75000,-10.45837,-6.62550
62.80000,-10.46651,-6.62594
62.85000,-10.47491,-6.62807
62.90000,-10.48317,-6.63275
62.95000,-10.49157,-6.63262
63.00000,-10.50011,-6.63752
63.05000,-10.50824,-6.63783
63.10000,-10.51637,-6.64164
63.15000,-10.52491,-6.64020
63.20000,-10.53331,-6.64835
63.25000,-10.54144,-6.64443
63.30000,-10.55011,-6.65194
63.35000,-10.55851,-6.64855
63.40000,-10.56651,-6.65638
63.45000,-10.57491,-6.65115
63.50000,-10.58344,-6.66025
63.55000,-10.59171,-6.65536
63.60000,-10.60011,-6.66301
63.65000,-10.60851,-6.65940
63.70000,-10.61677,-6.66595
63.75000,-10.62504,-6.66247
63.80000,-10.63331,-6.66887
63.85000,-10.64171,-6.66565
63.90000,-10.65011,-6.67281
63.95000,-10.65824,-6.66937
64.00000,-10.66651,-6.67516
64.05000,-10.67504,-6.67369
64.10001,-10.68331,-6.67950
64.15000,-10.69144,-6.67871
64.20000,-10.69997,-6.68245
64.25000,-10.70851,-6.68443
64.30000,-10.71651,-6.68619
64.35001,-10.72491,-6.68913
64.40000,-10.73357,-6.68944
64.45000,-10.74157,-6.69632
64.50000,-10.74984,-6.69197
64.55000,-10.75824,-6.69940
64.60001,-10.76651,-6.69666
64.65000,-10.77464,-6.70354
64.70000,-10.78291,-6.69911
64.75000,-10.79144,-6.70790
64.80000,-10.79984,-6.70502
64.85001,-10.80811,-6.71146
64.90000,-10.81651,-6.70966
64.95000,-10.82477,-6.71406
65.00000,-10.83317,-6.71359
65.05000,-10.84144,-6.71906
65.10001,-10.84984,-6.71577
65.15000,-10.85837,-6.72551
65.20000,-10.86664,-6.72337
65.25000,-10.87491,-6.72893
65.30000,-10.88344,-6.72744
65.35001,-10.89157,-6.73222
65.40000,-10.89971,-6.73321
65.45000,-10.90824,-6.73253
65.50000,-10.91651,-6.73759
65.55000,-10.92477,-6.73681
65.60001,-10.93317,-6.74194
65.65000,-10.94171,-6.74118
65.70001,-10.94997,-6.74804
65.75000,-10.95824,-6.74514
65.80000,-10.96677,-6.75385
65.85001,-10.97517,-6.74968
65.90000,-10.98331,-6.75771
65.95001,-10.99171,-6.75435
66.00000,-11.00011,-6.76010
66.05000,-11.00851,-6.76027
66.10001,-11.01677,-6.76161
66.15000,-11.02491,-6.76925
66.20001,-11.03344,-6.76478
66.25000,-11.04171,-6.77412
66.30000,-11.04971,-6.77103
66.35001,-11.05837,-6.77854
66.40000,-11.06664,-6.77754
66.45001,-11.07477,-6.78414
66.50000,-11.08331,-6.78120
66.55000,-11.09171,-6.79217
66.60001,-11.09997,-6.78638
66.65000,-11.10824,-6.79868
66.70001,-11.11691,-6.79317
66.75000,-11.12504,-6.80537
66.80000,-11.13331,-6.79883
66.85001,-11.14171,-6.81031
66.90000,-11.15011,-6.80538
66.95001,-11.15824,-6.81508
67.00000,-11.16664,-6.81194
67.05000,-11.17491,-6.81965
67.10001,-11.18331,-6.81762
67.15000,-11.19157,-6.82721
67.20001,-11.19971,-6.82363
67.25000,-11.20837,-6.83128
67.30000,-11.21664,-6.83108
67.35001,-11.22477,-6.83636
67.40000,-11.23317,-6.83316
67.45001,-11.24171,-6.84300
67.50000,-11.24984,-6.84083
67.55000,-11.25811,-6.84784
67.60001,-11.26677,-6.84676
67.65000,-11.27504,-6.85647
67.70001,-11.28331,-6.85319
67.75000,-11.29157,-6.86029
67.80000,-11.29984,-6.85893
67.85001,-11.30811,-6.86543
67.90000,-11.31637,-6.86503
67.95001,-11.32477,-6.87104
68.00000,-11.33291,-6.87067
68.05000,-11.34131,-6.87681
68.10001,-11.34971,-6.87768
68.15000,-11.35824,-6.88319
68.20001,-11.36664,-6.88619
68.25000,-11.37491,-6.88989
68.30000,-11.38331,-6.89053
68.35001,-11.39184,-6.89578
68.40000,-11.39997,-6.89788
68.45001,-11.40811,-6.90048
68.50000,-11.41677,-6.90153
68.55000,-11.42491,-6.90702
68.60001,-11.43317,-6.90757
68.65000,-11.44171,-6.91042
68.70001,-11.44984,-6.91386
68.75000,-11.45797,-6.91802
68.80000,-11.46651,-6.91396
68.85001,-11.47504,-6.92731
68.90000,-11.48331,-6.92385
68.95001,-11.49144,-6.93224
69.00000,-11.50011,-6.92963
69.05000,-11.50837,-6.93659
69.10001,-11.51664,-6.93808
69.15000,-11.52504,-6.94391
69.20001,-11.53344,-6.94072
69.25000,-11.54184,-6.95310
69.30000,-11.55011,-6.94762
69.35001,-11.55837,-6.96048
69.40000,-11.56677,-6.94936
69.45001,-11.57491,-6.96955
69.50000,-11.58304,-6.95586
69.55000,-11.59157,-6.97402
69.60001,-11.59984,-6.96458
69.65000,-11.60811,-6.98083
69.70001,-11.61664,-6.97310
69.75000,-11.62517,-6.99050
69.80000,-11.63317,-6.97946
69.85001,-11.64157,-6.99828
69.90000,-11.65011,-6.98595
69.95001,-11.65837,-7.00405
70.00000,-11.66664,-6.99407
70.05000,-11.67504,-7.00774
70.10001,-11.68330,-7.00433
70.15000,-11.69157,-7.01029
70.20001,-11.69997,-7.01132
70.25000,-11.70824,-7.01689
70.30000,-11.71664,-7.01905
70.35001,-11.72491,-7.02355
70.40000,-11.73317,-7.02351
70.45001,-11.74170,-7.03004
70.50000,-11.74997,-7.03085
70.55000,-11.75810,-7.03507
70.60001,-11.76664,-7.03740
70.65000,-11.77517,-7.04337
70.70001,-11.78330,-7.04639
70.75000,-11.79157,-7.04640
70.80000,-11.80024,-7.05520
70.85001,-11.80824,-7.05579
70.90000,-11.81650,-7.05763
70.95001,-11.82504,-7.06103
71.00000,-11.83330,-7.06211
71.05000,-11.84144,-7.06691
71.10001,-11.84970,-7.06400
71.15000,-11.85810,-7.07546
71.20001,-11.86637,-7.06765
71.25000,-11.87477,-7.08419
71.30000,-11.88317,-7.07409
71.35001,-11.89157,-7.09061
71.40000,-11.89997,-7.08248
71.45001,-11.90797,-7.09755
71.50000,-11.91650,-7.08732
71.55000,-11.92490,-7.10326
71.60001,-11.93317,-7.09682
71.65000,-11.94157,-7.10874
71.70001,-11.95010,-7.10276
71.75000,-11.95824,-7.11577
71.80000,-11.96650,-7.11074
71.85001,-11.97490,-7.11762
71.90000,-11.98330,-7.11797
71.95001,-11.99130,-7.12252
72.00000,-11.99970,-7.12196
72.05000,-12.00837,-7.12784
72.10001,-12.01650,-7.12932
72.15000,-12.02490,-7.13198
72.20001,-12.03344,-7.13644
72.25000,-12.04170,-7.13592
72.30000,-12.04997,-7.14184
72.35001,-12.05837,-7.13981
72.40000,-12.06677,-7.14754
72.45001,-12.07504,-7.14297
72.50000,-12.08330,-7.15080
72.55000,-12.09157,-7.14643
72.60001,-12.09997,-7.15459
72.65000,-12.10824,-7.15135
72.70001,-12.11650,-7.15726
72.75000,-12.12490,-7.15655
72.80000,-12.13317,-7.16302
72.85001,-12.14144,-7.16039
72.90000,-12.14997,-7.16758
72.95001,-12.15837,-7.16610
73.00000,-12.16664,-7.17243
73.05000,-12.17490,-7.16861
73.10001,-12.18344,-7.17768
73.15000,-12.19170,-7.17464
73.20001,-12.20010,-7.18159
73.25000,-12.20850,-7.18086
73.30000,-12.21664,-7.18593
73.35001,-12.22490,-7.18392
73.40000,-12.23330,-7.18897
73.45001,-12.24157,-7.18825
73.50000,-12.24997,-7.19296
73.55000,-12.25824,-7.19446
73.60001,-12.26637,-7.19568
73.65000,-12.27504,-7.19972
73.70001,-12.28330,-7.20243
73.75000,-12.29144,-7.20607
73.80000,-12.29997,-7.20544
73.85001,-12.30850,-7.21088
73.90000,-12.31650,-7.21236
73.95001,-12.32477,-7.21325
74.00000,-12.33344,-7.21456
74.05000,-12.34157,-7.21889
74.10001,-12.34984,-7.21909
74.15000,-12.35810,-7.22141
74.20001,-12.36650,-7.22286
74.25000,-12.37477,-7.22587
74.30000,-12.38317,-7.22836
74.35001,-12.39157,-7.23021
74.40000,-12.39984,-7.23213
74.45001,-12.40810,-7.23532
74.50000,-12.41637,-7.23892
74.55000,-12.42490,-7.23905
74.60001,-12.43330,-7.24465
74.65000,-12.44144,-7.24448
74.70001,-12.44997,-7.24818
74.75000,-12.45837,-7.24967
74.80000,-12.46650,-7.25471
74.85001,-12.47490,-7.25396
74.90000,-12.48344,-7.25928
74.95001,-12.49157,-7.25880
75.00000,-12.49984,-7.26256
75.05000,-12.50824,-7.26258
75.10001,-12.51650,-7.26767
75.15000,-12.52464,-7.26432
75.20001,-12.53304,-7.27134
75.25000,-12.54157,-7.27184
75.30000,-12.54997,-7.27651
75.35001,-12.55824,-7.27591
75.40000,-12.56677,-7.28003
75.45001,-12.57504,-7.28198
75.50000,-12.58330,-7.28369
75.55000,-12.59170,-7.28647
75.60001,-12.60010,-7.28884
75.65000,-12.60850,-7.29214
75.70001,-12.61677,-7.29474
75.75000,-12.62504,-7.29531
75.80000,-12.63344,-7.29811
75.85001,-12.64170,-7.30110
75.90000,-12.64984,-7.30152
75.95001,-12.65837,-7.30253
76.00000,-12.66664,-7.30648
76.05000,-12.67477,-7.30857
76.10001,-12.68330,-7.30910
76.15000,-12.69184,-7.31492
76.20001,-12.69997,-7.31384
76.25000,-12.70837,-7.31875
76.30000,-12.71690,-7.31842
76.35001,-12.72504,-7.32317
76.40000,-12.73344,-7.32034
76.45001,-12.74170,-7.32782
76.50000,-12.75010,-7.32353
76.55000,-12.75837,-7.32945
76.60001,-12.76664,-7.32815
76.65000,-12.77504,-7.33287
76.70001,-12.78330,-7.33143
76.75000,-12.79157,-7.33626
76.80000,-12.79970,-7.33470
76.85001,-12.80837,-7.33967
76.90000,-12.81677,-7.34001
76.95001,-12.82477,-7.34342
77.00000,-12.83330,-7.34175
77.05000,-12.84184,-7.34783
77.10001,-12.84984,-7.34480
77.15000,-12.85810,-7.34899
77.20001,-12.86677,-7.34892
77.25000,-12.87490,-7.35322
77.30000,-12.88317,-7.35302
77.35001,-12.89157,-7.35360
77.40000,-12.89984,-7.35644
77.45001,-12.90797,-7.35567
77.50000,-12.91637,-7.35861
77.55000,-12.92477,-7.35914
77.60001,-12.93304,-7.36206
77.65000,-12.94130,-7.36297
77.70001,-12.94970,-7.36503
77.75000,-12.95824,-7.36793
77.80000,-12.96663,-7.37056
77.85001,-12.97477,-7.37276
77.90000,-12.98330,-7.37314
77.95001,-12.99170,-7.37574
78.00000,-12.99983,-7.37967
78.05000,-13.00810,-7.37621
78.10001,-13.01677,-7.38350
78.15000,-13.02490,-7.37965
78.20001,-13.03317,-7.38645
78.25000,-13.04157,-7.38331
78.30000,-13.04997,-7.39052
78.35001,-13.05810,-7.38816
78.40000,-13.06650,-7.39234
78.45001,-13.07490,-7.39300
78.50000,-13.08317,-7.39612
78.55000,-13.09157,-7.39812
78.60001,-13.09997,-7.40133
78.65000,-13.10837,-7.40287
78.70001,-13.11677,-7.40713
78.75000,-13.12503,-7.40926
78.80000,-13.13357,-7.41038
78.85001,-13.14183,-7.41431
78.90000,-13.15010,-7.41661
78.95001,-13.15837,-7.41575
79.00000,-13.16677,-7.42146
79.05000,-13.17490,-7.42158
79.10001,-13.18317,-7.42423
79.15000,-13.19157,-7.42367
79.20001,-13.19983,-7.42814
79.25000,-13.20810,-7.42893
79.30000,-13.21663,-7.43270
79.35001,-13.22503,-7.43467
79.40000,-13.23317,-7.43857
79.45001,-13.24143,-7.43813
79.50000,-13.25010,-7.44235
79.55000,-13.25823,-7.44241
79.60001,-13.26677,-7.44869
79.65000,-13.27517,-7.44808
79.70001,-13.28343,-7.45314
79.75000,-13.29157,-7.45231
79.80000,-13.29997,-7.45734
79.85001,-13.30837,-7.45816
79.90000,-13.31663,-7.46178
79.95001,-13.32490,-7.46506
80.00000,-13.33303,-7.46587
80.05000,-13.34157,-7.46926
80.10001,-13.34983,-7.47247
80.15000,-13.35810,-7.47555
80.20001,-13.36663,-7.47863
80.25000,-13.37503,-7.48247
80.30000,-13.38317,-7.48624
80.35001,-13.39157,-7.48770
80.40000,-13.40023,-7.49273
80.45001,-13.40823,-7.49556
80.50001,-13.41650,-7.49566
80.55000,-13.42490,-7.49854
80.60001,-13.43317,-7.50289
80.65000,-13.44130,-7.50396
80.70001,-13.44970,-7.50725
80.75001,-13.45810,-7.51080
80.80000,-13.46637,-7.51379
80.85001,-13.47477,-7.51704
80.90000,-13.48317,-7.51987
80.95001,-13.49157,-7.52209
81.00001,-13.49997,-7.52672
81.05000,-13.50810,-7.52864
81.10001,-13.51663,-7.52981
81.15000,-13.52503,-7.53296
81.20001,-13.53317,-7.53690
81.25001,-13.54157,-7.53625
81.30000,-13.55010,-7.54129
81.35001,-13.55823,-7.54366
81.40000,-13.56637,-7.54415
81.45001,-13.57503,-7.54778
81.50001,-13.58330,-7.55120
81.55000,-13.59143,-7.55298
81.60001,-13.59983,-7.55498
81.65000,-13.60837,-7.55910
81.70001,-13.61650,-7.56153
81.75001,-13.62477,-7.56268
81.80000,-13.63343,-7.56882
81.85001,-13.64170,-7.57117
81.90000,-13.64997,-7.57340
81.95001,-13.65837,-7.57664
82.00001,-13.66677,-7.57957
82.05000,-13.67503,-7.58305
82.10001,-13.68330,-7.58569
82.15000,-13.69157,-7.58661
82.20001,-13.70010,-7.59182
82.25001,-13.70837,-7.59367
82.30000,-13.71650,-7.59550
82.35001,-13.72503,-7.59691
82.40000,-13.73317,-7.60050
82.45001,-13.74130,-7.60089
82.50001,-13.74997,-7.60404
82.55000,-13.75850,-7.60877
82.60001,-13.76663,-7.61141
82.65000,-13.77490,-7.61357
82.70001,-13.78357,-7.61743
82.75001,-13.79170,-7.62016
82.80000,-13.79997,-7.62054
82.85001,-13.80837,-7.62304
82.90000,-13.81677,-7.62374
82.95001,-13.82503,-7.62668
83.00001,-13.83330,-7.62858
83.05000,-13.84170,-7.62765
83.10001,-13.84997,-7.63094
83.15000,-13.85823,-7.63286
83.20001,-13.86637,-7.63402
83.25001,-13.87490,-7.63408
83.30000,-13.88330,-7.63816
83.35001,-13.89143,-7.64006
83.40000,-13.89983,-7.63989
83.45001,-13.90837,-7.64322
83.50001,-13.91650,-7.64583
83.55000,-13.92490,-7.64666
83.60001,-13.93357,-7.64965
83.65000,-13.94170,-7.65264
83.70001,-13.94997,-7.65386
83.75001,-13.95823,-7.65409
83.80000,-13.96650,-7.65643
83.85001,-13.97477,-7.65764
83.90000,-13.98303,-7.65984
83.95001,-13.99130,-7.66225
84.00001,-13.99957,-7.66249
84.05000,-14.00797,-7.66538
84.10001,-14.01637,-7.66827
84.15000,-14.02503,-7.67134
84.20001,-14.03343,-7.67551
84.25001,-14.04157,-7.67783
84.30000,-14.04997,-7.67867
84.35001,-14.05850,-7.68395
84.40000,-14.06650,-7.68569
84.45001,-14.07490,-7.68723
84.50001,-14.08343,-7.69127
84.55000,-14.09157,-7.69596
84.60001,-14.09970,-7.69453
84.65000,-14.10823,-7.69718
84.70001,-14.11663,-7.70072
84.75001,-14.12477,-7.70298
84.80000,-14.13317,-7.70464
84.85001,-14.14170,-7.70920
84.90000,-14.14997,-7.71163
84.95001,-14.15823,-7.71518
85.00001,-14.16677,-7.71774
85.05000,-14.17503,-7.72311
85.10001,-14.18330,-7.72584
85.15000,-14.19170,-7.73171
85.20001,-14.20010,-7.73286
85.25001,-14.20850,-7.73876
85.30000,-14.21663,-7.74229
85.35001,-14.22490,-7.74407
85.40000,-14.23343,-7.74841
85.45001,-14.24157,-7.75217
85.50001,-14.24970,-7.75543
85.55000,-14.25837,-7.75895
85.60001,-14.26650,-7.76362
85.65000,-14.27476,-7.76587
85.70001,-14.28330,-7.77209
85.75001,-14.29183,-7.77814
85.80000,-14.29983,-7.77947
85.85001,-14.30823,-7.78297
85.90000,-14.31676,-7.78929
85.95001,-14.32503,-7.79280
86.00001,-14.33330,-7.79566
86.05000,-14.34170,-7.79987
86.10001,-14.35010,-7.80597
86.15000,-14.35823,-7.80803
86.20001,-14.36650,-7.81189
86.25001,-14.37490,-7.81484
86.30000,-14.38330,-7.82099
86.35001,-14.39156,-7.82486
86.40000,-14.39970,-7.82672
86.45001,-14.40823,-7.83159
86.50001,-14.41663,-7.83834
86.55000,-14.42476,-7.84211
86.60001,-14.43330,-7.84544
86.65000,-14.44183,-7.85166
86.70001,-14.44983,-7.85756
86.75001,-14.45823,-7.86019
86.80000,-14.46690,-7.86415
86.85001,-14.47503,-7.86998
86.90000,-14.48316,-7.87377
86.95001,-14.49156,-7.87674
87.00001,-14.49983,-7.88128
87.05000,-14.50810,-7.88686
87.10001,-14.51650,-7.89238
87.15000,-14.52476,-7.89675
87.20001,-14.53316,-7.90124
87.25001,-14.54143,-7.90717
87.30000,-14.54970,-7.91235
87.35001,-14.55823,-7.91553
87.40000,-14.56663,-7.92224
87.45001,-14.57463,-7.92822
87.50001,-14.58316,-7.92956
87.55000,-14.59183,-7.93879
87.60001,-14.59996,-7.94372
87.65000,-14.60810,-7.94737
87.70001,-14.61676,-7.95105
87.75001,-14.62490,-7.95916
87.80000,-14.63303,-7.95970
87.85001,-14.64156,-7.96743
87.90000,-14.64983,-7.96940
87.95001,-14.65796,-7.97632
88.00001,-14.66636,-7.97805
88.05000,-14.67490,-7.98737
88.10001,-14.68330,-7.99097
88.15000,-14.69156,-7.99877
88.20001,-14.69996,-8.00206
88.25001,-14.70836,-8.00745
88.30000,-14.71663,-8.01218
88.35001,-14.72503,-8.01743
88.40000,-14.73343,-8.02237
88.45001,-14.74183,-8.02779
88.50001,-14.74996,-8.03388
88.55000,-14.75823,-8.03539
88.60001,-14.76676,-8.04409
88.65000,-14.77503,-8.04852
88.70001,-14.78303,-8.05284
88.75001,-14.79170,-8.05630
88.80000,-14.79996,-8.06628
88.85001,-14.80810,-8.06785
88.90000,-14.81663,-8.07629
88.95001,-14.82516,-8.08131
89.00001,-14.83316,-8.08940
89.05000,-14.84156,-8.09112
89.10001,-14.85010,-8.10061
89.15000,-14.85836,-8.10372
89.20001,-14.86663,-8.11241
89.25001,-14.87503,-8.11514
89.30000,-14.88343,-8.12324
89.35001,-14.89170,-8.12636
89.40000,-14.89996,-8.13461
89.45001,-14.90823,-8.13670
89.50001,-14.91676,-8.14580
89.55000,-14.92490,-8.14926
89.60001,-14.93303,-8.15556
89.65000,-14.94170,-8.15870
89.70001,-14.94996,-8.16880
89.75001,-14.95810,-8.16985
89.80000,-14.96676,-8.17858
89.85001,-14.97516,-8.18311
89.90000,-14.98330,-8.19215
89.95001,-14.99156,-8.19261
90.00001,-15.00023,-8.20283
90.05000,-15.00836,-8.20710
90.10001,-15.01650,-8.21410
90.15000,-15.02503,-8.21696
90.20001,-15.03330,-8.22634
90.22401,-15.03730,-8.22652
