Time,Extension,Load
(sec),(mm),(N)
0.00000,0.00000,-0.61797
0.05000,-0.00107,-0.61783
0.10000,-0.00560,-0.62538
0.15000,-0.01467,-0.64182
0.20000,-0.02520,-0.66931
0.25000,-0.03573,-0.69414
0.30000,-0.04560,-0.71830
0.35000,-0.05507,-0.73883
0.40000,-0.06440,-0.75986
0.45000,-0.07347,-0.77892
0.50000,-0.08200,-0.79687
0.55000,-0.09080,-0.81506
0.60000,-0.09947,-0.83372
0.65000,-0.10787,-0.84843
0.70000,-0.11627,-0.86718
0.75000,-0.12493,-0.88480
0.80000,-0.13320,-0.89802
0.85000,-0.14147,-0.91612
0.90000,-0.15000,-0.93266
0.95000,-0.15840,-0.94790
1.00000,-0.16653,-0.96402
1.05000,-0.17493,-0.97912
1.10000,-0.18333,-0.99582
1.15000,-0.19160,-1.01065
1.20000,-0.20000,-1.02805
1.25000,-0.20827,-1.03983
1.30000,-0.21680,-1.05884
1.35000,-0.22520,-1.07387
1.40000,-0.23333,-1.08693
1.45000,-0.24187,-1.10545
1.50000,-0.25027,-1.11927
1.55000,-0.25853,-1.13389
1.60000,-0.26680,-1.15027
1.65000,-0.27533,-1.16273
1.70000,-0.28347,-1.18118
1.75000,-0.29160,-1.19165
1.80000,-0.30013,-1.22762
1.85000,-0.30840,-1.19982
1.90000,-0.31653,-1.23726
1.95000,-0.32493,-1.24383
2.00000,-0.33360,-1.26250
2.05000,-0.34173,-1.26990
2.10000,-0.35000,-1.30926
2.15000,-0.35867,-1.29406
2.20000,-0.36693,-1.33594
2.25000,-0.37520,-1.31823
2.30000,-0.38360,-1.37303
2.35000,-0.39200,-1.34936
2.40000,-0.40027,-1.39649
2.45000,-0.40853,-1.38165
2.50000,-0.41680,-1.41067
2.55000,-0.42520,-1.42527
2.60000,-0.43347,-1.43226
2.65000,-0.44160,-1.44875
2.70000,-0.45013,-1.46466
2.75000,-0.45840,-1.47181
2.80000,-0.46653,-1.49744
2.85000,-0.47507,-1.49657
2.90000,-0.48360,-1.52494
2.95000,-0.49173,-1.52615
3.00000,-0.50013,-1.54733
3.05000,-0.50867,-1.55815
3.10000,-0.51680,-1.57080
3.15000,-0.52520,-1.58535
3.20000,-0.53360,-1.59636
3.25000,-0.54187,-1.61608
3.30000,-0.55013,-1.61971
3.35000,-0.55840,-1.63901
3.40000,-0.56667,-1.64848
3.45000,-0.57493,-1.66398
3.50000,-0.58320,-1.67728
3.55000,-0.59147,-1.68744
3.60000,-0.60000,-1.70284
3.65000,-0.60840,-1.71395
3.70000,-0.61667,-1.72921
3.75000,-0.62507,-1.74137
3.80000,-0.63360,-1.75220
3.85000,-0.64173,-1.76916
3.90000,-0.65013,-1.77736
3.95000,-0.65867,-1.79417
4.00000,-0.66693,-1.80291
4.05000,-0.67507,-1.81877
4.10000,-0.68346,-1.82730
4.15000,-0.69173,-1.84442
4.20000,-0.69986,-1.85497
4.25000,-0.70826,-1.86513
4.30000,-0.71666,-1.87591
4.35000,-0.72493,-1.89425
4.40000,-0.73333,-1.90341
4.45000,-0.74173,-1.91917
4.50000,-0.75026,-1.92649
4.55000,-0.75853,-1.94241
4.60000,-0.76680,-1.95641
4.65000,-0.77520,-1.96285
4.70000,-0.78360,-1.98125
4.75000,-0.79173,-1.98893
4.80000,-0.80000,-2.00294
4.85000,-0.80866,-2.01529
4.90000,-0.81680,-2.02696
4.95000,-0.82493,-2.03831
5.00000,-0.83346,-2.04971
5.05000,-0.84173,-2.06281
5.10000,-0.84986,-2.07273
5.15000,-0.85813,-2.07902
5.20000,-0.86680,-2.09153
5.25000,-0.87506,-2.09334
5.30000,-0.88333,-2.09465
5.35000,-0.89200,-2.09638
5.40000,-0.90026,-2.09464
5.45000,-0.90853,-2.09425
5.50000,-0.91693,-2.09686
5.55000,-0.92520,-2.09604
5.60000,-0.93360,-2.09243
5.65000,-0.94200,-2.09262
5.70000,-0.95013,-2.09264
5.75000,-0.95866,-2.09395
5.80000,-0.96680,-2.09481
5.85000,-0.97493,-2.09303
5.90000,-0.98346,-2.09334
5.95000,-0.99173,-2.09600
6.00000,-1.00000,-2.09878
6.05000,-1.00853,-2.10217
6.10000,-1.01693,-2.10263
6.15000,-1.02506,-2.09707
6.20000,-1.03346,-2.09924
6.25000,-1.04200,-2.10569
6.30000,-1.05013,-2.11806
6.35000,-1.05853,-2.13377
6.40000,-1.06706,-2.14353
6.45000,-1.07520,-2.15857
6.50000,-1.08346,-2.16968
6.55000,-1.09186,-2.18545
6.60000,-1.10013,-2.19643
6.65000,-1.10840,-2.20710
6.70000,-1.11666,-2.21611
6.75000,-1.12480,-2.23048
6.80000,-1.13346,-2.24151
6.85000,-1.14173,-2.25488
6.90000,-1.14986,-2.26973
6.95000,-1.15853,-2.28217
7.00000,-1.16693,-2.29293
7.05000,-1.17493,-2.30590
7.10000,-1.18333,-2.31564
7.15000,-1.19186,-2.33291
7.20000,-1.20000,-2.34149
7.25000,-1.20826,-2.35763
7.30000,-1.21666,-2.36386
7.35000,-1.22506,-2.37925
7.40000,-1.23320,-2.38877
7.45000,-1.24173,-2.40287
7.50000,-1.25013,-2.41456
7.55000,-1.25826,-2.42565
7.60000,-1.26653,-2.43735
7.65000,-1.27493,-2.44862
7.70000,-1.28346,-2.46129
7.75000,-1.29173,-2.47555
7.80000,-1.30000,-2.48427
7.85000,-1.30840,-2.49819
7.90000,-1.31693,-2.50476
7.95000,-1.32506,-2.52524
8.00000,-1.33346,-2.52826
8.05000,-1.34200,-2.54839
8.10000,-1.35000,-2.55181
8.15000,-1.35826,-2.57111
8.20000,-1.36666,-2.57561
8.25000,-1.37506,-2.59397
8.30000,-1.38333,-2.60043
8.35000,-1.39173,-2.61620
8.40000,-1.40040,-2.62360
8.45000,-1.40853,-2.64059
8.50000,-1.41680,-2.64576
8.55000,-1.42533,-2.66586
8.60000,-1.43360,-2.66900
8.65000,-1.44200,-2.68819
8.70000,-1.45026,-2.69242
8.75000,-1.45866,-2.71045
8.80000,-1.46693,-2.71608
8.85000,-1.47520,-2.73256
8.90000,-1.48346,-2.73936
8.95000,-1.49186,-2.75235
9.00000,-1.50013,-2.76532
9.05000,-1.50826,-2.77022
9.10000,-1.51680,-2.79041
9.15000,-1.52506,-2.79273
9.20000,-1.53320,-2.81113
9.25000,-1.54173,-2.81497
9.30000,-1.55013,-2.83298
9.35000,-1.55840,-2.83859
9.40000,-1.56666,-2.85488
9.45000,-1.57533,-2.86133
9.50000,-1.58346,-2.87565
9.55000,-1.59173,-2.88166
9.60000,-1.60026,-2.90102
9.65000,-1.60853,-2.89792
9.70000,-1.61666,-2.92345
9.75000,-1.62493,-2.92019
9.80000,-1.63333,-2.94323
9.85000,-1.64173,-2.94487
9.90000,-1.64986,-2.96185
9.95000,-1.65813,-2.96822
10.00000,-1.66680,-2.98227
10.05000,-1.67506,-2.98889
10.10000,-1.68320,-3.00798
10.15000,-1.69173,-3.00798
10.20000,-1.70026,-3.03049
10.25000,-1.70840,-3.02729
10.30000,-1.71666,-3.05388
10.35000,-1.72533,-3.04770
10.40000,-1.73346,-3.07523
10.45000,-1.74160,-3.06770
10.50000,-1.75000,-3.09399
10.55000,-1.75840,-3.09043
10.60000,-1.76666,-3.11336
10.65000,-1.77493,-3.11350
10.70000,-1.78333,-3.13164
10.75000,-1.79160,-3.13655
10.80000,-1.79986,-3.14567
10.85000,-1.80826,-3.16172
10.90000,-1.81680,-3.16498
10.95000,-1.82520,-3.18622
11.00000,-1.83346,-3.18635
11.05000,-1.84186,-3.20560
11.10000,-1.85026,-3.20715
11.15000,-1.85853,-3.22765
11.20000,-1.86680,-3.22652
11.25000,-1.87533,-3.24811
11.30000,-1.88333,-3.24685
11.35000,-1.89160,-3.27214
11.40000,-1.90013,-3.25975
11.45000,-1.90840,-3.29819
11.50000,-1.91653,-3.27904
11.55000,-1.92493,-3.31424
11.60000,-1.93346,-3.30315
11.65000,-1.94173,-3.33183
11.70000,-1.95013,-3.32663
11.75000,-1.95853,-3.34794
11.80000,-1.96693,-3.34969
11.85000,-1.97520,-3.36882
11.90000,-1.98360,-3.36825
11.95000,-1.99200,-3.39342
12.00000,-2.00026,-3.38244
12.05000,-2.00853,-3.41772
12.10000,-2.01666,-3.40058
12.15000,-2.02506,-3.43560
12.20000,-2.03319,-3.42333
12.25000,-2.04146,-3.45270
12.30000,-2.05013,-3.44562
12.35000,-2.05853,-3.46977
12.40000,-2.06666,-3.46735
12.45000,-2.07506,-3.48902
12.50000,-2.08359,-3.48713
12.55000,-2.09186,-3.50867
12.60000,-2.10013,-3.50483
12.65000,-2.10879,-3.53005
12.70000,-2.11679,-3.52451
12.75000,-2.12506,-3.54827
12.80000,-2.13359,-3.54370
12.85000,-2.14186,-3.56556
12.90000,-2.15013,-3.56597
12.95000,-2.15839,-3.58169
13.00000,-2.16666,-3.58709
13.05000,-2.17519,-3.59870
13.10000,-2.18346,-3.60903
13.15000,-2.19159,-3.61336
13.20000,-2.20013,-3.63145
13.25000,-2.20853,-3.63058
13.30000,-2.21666,-3.65135
13.35000,-2.22519,-3.65016
13.40000,-2.23359,-3.67006
13.45000,-2.24173,-3.67002
13.50000,-2.25013,-3.68824
13.55000,-2.25866,-3.68835
13.60000,-2.26679,-3.70787
13.65000,-2.27493,-3.70499
13.70000,-2.28333,-3.72722
13.75000,-2.29173,-3.72073
13.80000,-2.29986,-3.74938
13.85000,-2.30826,-3.73932
13.90000,-2.31666,-3.76559
13.95000,-2.32479,-3.76010
14.00000,-2.33319,-3.78287
14.05000,-2.34159,-3.78035
14.10000,-2.35013,-3.80010
14.15000,-2.35839,-3.80007
14.20000,-2.36666,-3.81980
14.25000,-2.37506,-3.81728
14.30000,-2.38359,-3.83877
14.35000,-2.39186,-3.83657
14.40000,-2.40013,-3.85621
14.45000,-2.40866,-3.85529
14.50000,-2.41679,-3.87408
14.55000,-2.42493,-3.87446
14.60000,-2.43346,-3.89087
14.65000,-2.44186,-3.89466
14.70000,-2.44999,-3.90718
14.75000,-2.45826,-3.91161
14.80000,-2.46679,-3.92469
14.85000,-2.47506,-3.93093
14.90000,-2.48346,-3.94417
14.95000,-2.49199,-3.94724
15.00000,-2.50026,-3.96468
15.05000,-2.50853,-3.96591
15.10000,-2.51679,-3.98167
15.15000,-2.52519,-3.98439
15.20000,-2.53359,-3.99968
15.25000,-2.54186,-4.00302
15.30000,-2.54999,-4.01599
15.35000,-2.55866,-4.02149
15.40000,-2.56679,-4.03400
15.45000,-2.57493,-4.03800
15.50000,-2.58346,-4.05249
15.55000,-2.59173,-4.05587
15.60000,-2.59986,-4.06852
15.65000,-2.60839,-4.07329
15.70000,-2.61706,-4.08693
15.75000,-2.62506,-4.09265
15.80000,-2.63346,-4.10372
15.85000,-2.64199,-4.11034
15.90000,-2.65026,-4.12090
15.95000,-2.65839,-4.12773
16.00000,-2.66693,-4.13848
16.05000,-2.67519,-4.14556
16.10000,-2.68333,-4.15422
16.15000,-2.69159,-4.16328
16.20000,-2.69986,-4.17138
16.25000,-2.70839,-4.17997
16.30000,-2.71666,-4.18952
16.35000,-2.72479,-4.19767
16.40000,-2.73346,-4.20616
16.45000,-2.74173,-4.21516
16.50000,-2.74986,-4.22405
16.55000,-2.75839,-4.23110
16.60000,-2.76693,-4.24146
16.65000,-2.77506,-4.24785
16.70000,-2.78333,-4.25571
16.75000,-2.79199,-4.26408
16.80000,-2.80013,-4.27315
16.85000,-2.80826,-4.28050
16.90000,-2.81666,-4.28848
16.95000,-2.82506,-4.29735
17.00000,-2.83319,-4.30501
17.05000,-2.84159,-4.31369
17.10000,-2.84986,-4.32213
17.15000,-2.85826,-4.33018
17.20000,-2.86653,-4.33906
17.25000,-2.87493,-4.34455
17.30000,-2.88346,-4.35790
17.35000,-2.89186,-4.36121
17.40000,-2.89999,-4.37463
17.45000,-2.90839,-4.37903
17.50000,-2.91693,-4.38708
17.55000,-2.92506,-4.39826
17.60000,-2.93333,-4.40272
17.65000,-2.94186,-4.41340
17.70000,-2.95013,-4.41972
17.75000,-2.95826,-4.42877
17.80000,-2.96666,-4.43462
17.85000,-2.97519,-4.44502
17.90000,-2.98333,-4.45226
17.95000,-2.99159,-4.45952
18.00000,-3.00026,-4.46865
18.05000,-3.00839,-4.47592
18.10000,-3.01666,-4.48382
18.15000,-3.02519,-4.49254
18.20000,-3.03359,-4.49983
18.25000,-3.04186,-4.50813
18.30000,-3.05013,-4.51650
18.35000,-3.05866,-4.52422
18.40000,-3.06693,-4.53108
18.45000,-3.07519,-4.53918
18.50000,-3.08346,-4.54719
18.55000,-3.09199,-4.55410
18.60000,-3.10013,-4.56329
18.65000,-3.10826,-4.56883
18.70000,-3.11679,-4.57864
18.75000,-3.12506,-4.58441
18.80000,-3.13319,-4.59310
18.85000,-3.14173,-4.59942
18.90000,-3.15026,-4.60949
18.95000,-3.15853,-4.61559
19.00000,-3.16679,-4.62418
19.05000,-3.17533,-4.63177
19.10000,-3.18346,-4.63887
19.15000,-3.19186,-4.64640
19.20000,-3.20026,-4.65308
19.25000,-3.20866,-4.66169
19.30000,-3.21679,-4.66804
19.35000,-3.22506,-4.67574
19.40000,-3.23346,-4.68281
19.45000,-3.24186,-4.69085
19.50000,-3.25013,-4.69791
19.55000,-3.25826,-4.70561
19.60000,-3.26693,-4.71117
19.65000,-3.27519,-4.72015
19.70000,-3.28333,-4.72659
19.75000,-3.29173,-4.73230
19.80000,-3.30026,-4.74148
19.85000,-3.30839,-4.74774
19.90000,-3.31666,-4.75607
19.95000,-3.32533,-4.76126
20.00000,-3.33346,-4.77009
20.05000,-3.34159,-4.77519
20.10000,-3.34986,-4.78262
20.15000,-3.35826,-4.78918
20.20000,-3.36653,-4.79605
20.25000,-3.37493,-4.80316
20.30000,-3.38333,-4.81039
20.35000,-3.39159,-4.81614
20.40000,-3.39999,-4.82428
20.45000,-3.40839,-4.83087
20.50000,-3.41679,-4.83709
20.55000,-3.42506,-4.84436
20.60000,-3.43332,-4.85205
20.65000,-3.44172,-4.85828
20.70000,-3.45026,-4.86634
20.75000,-3.45839,-4.87360
20.80000,-3.46679,-4.88041
20.85000,-3.47519,-4.88662
20.90000,-3.48346,-4.89347
20.95000,-3.49159,-4.90116
21.00000,-3.50012,-4.90661
21.05000,-3.50852,-4.91578
21.10000,-3.51652,-4.92077
21.15000,-3.52492,-4.92953
21.20000,-3.53359,-4.93441
21.25000,-3.54172,-4.94368
21.30000,-3.54999,-4.94857
21.35000,-3.55852,-4.95898
21.40000,-3.56692,-4.96081
21.45000,-3.57519,-4.97271
21.50000,-3.58346,-4.97444
21.55000,-3.59199,-4.98858
21.60000,-3.60026,-4.98811
21.65000,-3.60852,-5.00077
21.70000,-3.61666,-5.00251
21.75000,-3.62532,-5.01207
21.80000,-3.63346,-5.01600
21.85000,-3.64159,-5.02398
21.90000,-3.65026,-5.02958
21.95000,-3.65852,-5.03770
22.00000,-3.66652,-5.04425
22.05000,-3.67506,-5.05064
22.10000,-3.68359,-5.05768
22.15000,-3.69172,-5.06431
22.20000,-3.70012,-5.07140
22.25000,-3.70866,-5.07674
22.30000,-3.71692,-5.08627
22.35000,-3.72506,-5.08748
22.40000,-3.73359,-5.10128
22.45000,-3.74186,-5.10169
22.50000,-3.75012,-5.11142
22.55000,-3.75839,-5.11694
22.60000,-3.76679,-5.12166
22.65000,-3.77519,-5.13104
22.70000,-3.78332,-5.13486
22.75000,-3.79146,-5.14162
22.80000,-3.79999,-5.14785
22.85000,-3.80839,-5.15487
22.90000,-3.81652,-5.15999
22.95000,-3.82506,-5.16728
23.00000,-3.83359,-5.17589
23.05000,-3.84172,-5.17584
23.10000,-3.84999,-5.18960
23.15000,-3.85866,-5.18715
23.20000,-3.86679,-5.20319
23.25000,-3.87506,-5.20071
23.30000,-3.88332,-5.21229
23.35000,-3.89172,-5.21319
23.40000,-3.89986,-5.22578
23.45000,-3.90826,-5.22324
23.50000,-3.91666,-5.23652
23.55000,-3.92492,-5.23783
23.60000,-3.93319,-5.24648
23.65000,-3.94159,-5.25225
23.70000,-3.94999,-5.25763
23.75000,-3.95839,-5.26500
23.80000,-3.96666,-5.27064
23.85000,-3.97506,-5.27633
23.90000,-3.98359,-5.28232
23.95000,-3.99172,-5.28913
24.00000,-3.99999,-5.29383
24.05000,-4.00852,-5.30116
24.10000,-4.01666,-5.30333
24.15000,-4.02479,-5.31541
24.20000,-4.03332,-5.31132
24.25000,-4.04186,-5.32925
24.30000,-4.04986,-5.32529
24.35000,-4.05826,-5.33818
24.40000,-4.06692,-5.33856
24.45000,-4.07519,-5.34883
24.50000,-4.08346,-5.35089
24.55000,-4.09199,-5.35963
24.60000,-4.10026,-5.36409
24.65000,-4.10852,-5.36710
24.70000,-4.11679,-5.37910
24.75000,-4.12532,-5.37697
24.80000,-4.13372,-5.39000
24.85000,-4.14186,-5.39092
24.90000,-4.14999,-5.39917
24.95000,-4.15852,-5.40117
25.00000,-4.16666,-5.41204
25.05000,-4.17479,-5.41032
25.10000,-4.18346,-5.42258
25.15000,-4.19172,-5.42406
25.20000,-4.19986,-5.43316
25.25000,-4.20839,-5.43488
25.30000,-4.21692,-5.44332
25.35000,-4.22519,-5.44787
25.40000,-4.23346,-5.45425
25.45000,-4.24199,-5.45890
25.50000,-4.25026,-5.46457
25.55000,-4.25852,-5.47075
25.60000,-4.26692,-5.47451
25.65000,-4.27519,-5.48035
25.70000,-4.28346,-5.48752
25.75000,-4.29172,-5.48611
25.80000,-4.29999,-5.50277
25.85000,-4.30852,-5.49448
25.90000,-4.31666,-5.51272
25.95000,-4.32466,-5.50740
26.00000,-4.33332,-5.52035
26.05000,-4.34159,-5.51864
26.10000,-4.34972,-5.53212
26.15000,-4.35826,-5.52770
26.20000,-4.36679,-5.54306
26.25000,-4.37506,-5.53898
26.30000,-4.38332,-5.55358
26.35000,-4.39186,-5.54859
26.40000,-4.40026,-5.56450
26.45000,-4.40839,-5.55930
26.50000,-4.41692,-5.57352
26.55000,-4.42519,-5.57109
26.60000,-4.43332,-5.58081
26.65000,-4.44172,-5.58271
26.70000,-4.44999,-5.59021
26.75000,-4.45826,-5.59159
26.80000,-4.46666,-5.59989
26.85000,-4.47492,-5.60016
26.90000,-4.48346,-5.60910
26.95000,-4.49186,-5.61264
27.00000,-4.50012,-5.62139
27.05000,-4.50839,-5.61907
27.10000,-4.51679,-5.63088
27.15000,-4.52506,-5.63050
27.20000,-4.53332,-5.63824
27.25000,-4.54186,-5.64083
27.30000,-4.55026,-5.64815
27.35000,-4.55839,-5.65115
27.40000,-4.56679,-5.65716
27.45000,-4.57519,-5.66041
27.50000,-4.58319,-5.66580
27.55000,-4.59159,-5.66866
27.60000,-4.60012,-5.67590
27.65000,-4.60839,-5.67825
27.70000,-4.61666,-5.68619
27.75000,-4.62532,-5.68803
27.80000,-4.63359,-5.69458
27.85000,-4.64186,-5.69650
27.90000,-4.65026,-5.70392
27.95000,-4.65866,-5.70636
28.00000,-4.66692,-5.71201
28.05000,-4.67519,-5.71478
28.10000,-4.68332,-5.71974
28.15000,-4.69186,-5.72248
28.20000,-4.70026,-5.72788
28.25000,-4.70839,-5.73139
28.30000,-4.71679,-5.73565
28.35000,-4.72519,-5.73902
28.40000,-4.73332,-5.74459
28.45000,-4.74185,-5.74749
28.50000,-4.75026,-5.75421
28.55000,-4.75852,-5.75592
28.60000,-4.76679,-5.76055
28.65000,-4.77532,-5.76476
28.70000,-4.78359,-5.76994
28.75000,-4.79185,-5.77193
28.80000,-4.80025,-5.77779
28.85000,-4.80852,-5.77850
28.90000,-4.81679,-5.78500
28.95000,-4.82506,-5.78751
29.00000,-4.83332,-5.79102
29.05000,-4.84172,-5.79682
29.10000,-4.84999,-5.79722
29.15000,-4.85812,-5.80703
29.20000,-4.86665,-5.80482
29.25000,-4.87506,-5.81516
29.30000,-4.88319,-5.81458
29.35000,-4.89185,-5.82170
29.40000,-4.90025,-5.82356
29.45000,-4.90825,-5.83025
29.50000,-4.91665,-5.82893
29.55000,-4.92532,-5.83866
29.60000,-4.93345,-5.83714
29.65000,-4.94159,-5.84627
29.70000,-4.94999,-5.84497
29.75000,-4.95839,-5.85418
29.80000,-4.96665,-5.85208
29.85000,-4.97505,-5.86116
29.90000,-4.98332,-5.86037
29.95000,-4.99159,-5.86805
30.00000,-4.99999,-5.86874
30.05000,-5.00825,-5.87686
30.10000,-5.01679,-5.87665
30.15000,-5.02532,-5.88601
30.20000,-5.03345,-5.88647
30.25000,-5.04185,-5.89300
30.30000,-5.05025,-5.89407
30.35000,-5.05839,-5.90147
30.40000,-5.06665,-5.90280
30.45000,-5.07532,-5.90885
30.50000,-5.08345,-5.91127
30.55000,-5.09159,-5.91713
30.60000,-5.10012,-5.91852
30.65000,-5.10839,-5.92593
30.70000,-5.11652,-5.92656
30.75000,-5.12492,-5.93261
30.80000,-5.13345,-5.93553
30.85000,-5.14172,-5.94162
30.90000,-5.14985,-5.94414
30.95000,-5.15839,-5.94954
31.00000,-5.16692,-5.95200
31.05000,-5.17519,-5.95658
31.10000,-5.18359,-5.96021
31.15000,-5.19199,-5.96464
31.20000,-5.20012,-5.96818
31.25000,-5.20839,-5.97262
31.30000,-5.21665,-5.97513
31.35000,-5.22519,-5.98090
31.40000,-5.23345,-5.98419
31.45000,-5.24159,-5.98856
31.50000,-5.25012,-5.99208
31.55000,-5.25839,-5.99717
31.60000,-5.26652,-5.99963
31.65000,-5.27505,-6.00479
31.70000,-5.28359,-6.00885
31.75000,-5.29172,-6.01252
31.80000,-5.30012,-6.01531
31.85000,-5.30865,-6.01967
31.90000,-5.31692,-6.02373
31.95000,-5.32519,-6.02632
32.00000,-5.33359,-6.03016
32.05000,-5.34172,-6.03332
32.10000,-5.35012,-6.03684
32.15000,-5.35839,-6.04084
32.20000,-5.36665,-6.04421
32.25000,-5.37519,-6.04838
32.30000,-5.38345,-6.05230
32.35000,-5.39159,-6.05549
32.40000,-5.40012,-6.05868
32.45000,-5.40852,-6.06348
32.50000,-5.41665,-6.06728
32.55000,-5.42519,-6.07170
32.60000,-5.43359,-6.07484
32.65000,-5.44172,-6.07942
32.70000,-5.45012,-6.08212
32.75000,-5.45865,-6.08689
32.80000,-5.46679,-6.09013
32.85000,-5.47505,-6.09410
32.90000,-5.48332,-6.09716
32.95000,-5.49172,-6.10107
33.00000,-5.49985,-6.10377
33.05000,-5.50825,-6.10855
33.10000,-5.51665,-6.11041
33.15000,-5.52492,-6.11511
33.20000,-5.53319,-6.11762
33.25000,-5.54159,-6.12298
33.30000,-5.55012,-6.12611
33.35000,-5.55852,-6.13044
33.40000,-5.56665,-6.13546
33.45000,-5.57519,-6.13744
33.50000,-5.58359,-6.14171
33.55000,-5.59172,-6.14459
33.60000,-5.59999,-6.14840
33.65000,-5.60852,-6.15047
33.70000,-5.61679,-6.15523
33.75000,-5.62492,-6.15742
33.80000,-5.63345,-6.16197
33.85000,-5.64172,-6.16461
33.90000,-5.64985,-6.16756
33.95000,-5.65825,-6.17041
34.00000,-5.66679,-6.17454
34.05000,-5.67492,-6.17686
34.10000,-5.68332,-6.18065
34.15000,-5.69172,-6.18534
34.20000,-5.70012,-6.18812
34.25000,-5.70839,-6.19164
34.30000,-5.71679,-6.19495
34.35000,-5.72519,-6.19907
34.40000,-5.73359,-6.20164
34.45000,-5.74185,-6.20614
34.50000,-5.74999,-6.20834
34.55000,-5.75852,-6.21311
34.60000,-5.76679,-6.21509
34.65000,-5.77492,-6.21916
34.70000,-5.78359,-6.22192
34.75000,-5.79185,-6.22680
34.80000,-5.79999,-6.22751
34.85000,-5.80852,-6.23288
34.90000,-5.81692,-6.23604
34.95000,-5.82505,-6.24010
35.00000,-5.83332,-6.24127
35.05000,-5.84199,-6.24803
35.10000,-5.85012,-6.24907
35.15000,-5.85852,-6.25395
35.20000,-5.86692,-6.25624
35.25000,-5.87519,-6.26104
35.30000,-5.88332,-6.26182
35.35000,-5.89172,-6.26600
35.40000,-5.89999,-6.26710
35.45000,-5.90839,-6.27267
35.50000,-5.91665,-6.27411
35.55000,-5.92492,-6.27731
35.60000,-5.93345,-6.27961
35.65000,-5.94185,-6.28546
35.70000,-5.94999,-6.28590
35.75000,-5.95852,-6.28841
35.80000,-5.96692,-6.29438
35.85000,-5.97505,-6.29469
35.90000,-5.98332,-6.29825
35.95000,-5.99185,-6.30187
36.00000,-5.99985,-6.30292
36.05000,-6.00812,-6.30839
36.10000,-6.01652,-6.30720
36.15000,-6.02492,-6.31599
36.20000,-6.03319,-6.31417
36.25000,-6.04172,-6.32152
36.30000,-6.04999,-6.32181
36.35000,-6.05825,-6.32656
36.40000,-6.06665,-6.32794
36.45000,-6.07505,-6.33335
36.50000,-6.08345,-6.33549
36.55000,-6.09185,-6.33984
36.60000,-6.09998,-6.34275
36.65000,-6.10852,-6.34522
36.70000,-6.11692,-6.34890
36.75000,-6.12519,-6.35374
36.80000,-6.13345,-6.35544
36.85000,-6.14212,-6.35973
36.90000,-6.15012,-6.36324
36.95000,-6.15838,-6.36615
37.00000,-6.16679,-6.36907
37.05000,-6.17519,-6.37379
37.10000,-6.18332,-6.37700
37.15000,-6.19158,-6.37982
37.20000,-6.20012,-6.38532
37.25000,-6.20838,-6.38598
37.30000,-6.21665,-6.39205
37.35000,-6.22519,-6.39448
37.40000,-6.23345,-6.39957
37.45000,-6.24185,-6.40250
37.50000,-6.25025,-6.40661
37.55000,-6.25852,-6.41004
37.60000,-6.26692,-6.41403
37.65000,-6.27518,-6.41685
37.70000,-6.28345,-6.42078
37.75000,-6.29198,-6.42368
37.80000,-6.30012,-6.42790
37.85000,-6.30825,-6.43125
37.90000,-6.31678,-6.43475
37.95000,-6.32505,-6.43819
38.00000,-6.33318,-6.44152
38.05000,-6.34172,-6.44624
38.10000,-6.35025,-6.44976
38.15000,-6.35838,-6.45396
38.20000,-6.36678,-6.45571
38.25000,-6.37532,-6.46156
38.30000,-6.38345,-6.46352
38.35000,-6.39185,-6.46794
38.40000,-6.40025,-6.47138
38.45000,-6.40852,-6.47515
38.50000,-6.41678,-6.47799
38.55000,-6.42518,-6.48171
38.60000,-6.43345,-6.48519
38.65000,-6.44185,-6.48764
38.70000,-6.45012,-6.49181
38.75000,-6.45812,-6.49461
38.80000,-6.46678,-6.49817
38.85000,-6.47518,-6.50193
38.90000,-6.48332,-6.50483
38.95000,-6.49172,-6.50826
39.00000,-6.50025,-6.51141
39.05000,-6.50838,-6.51564
39.10000,-6.51678,-6.51735
39.15000,-6.52532,-6.52160
39.20000,-6.53345,-6.52404
39.25000,-6.54172,-6.52802
39.30000,-6.55012,-6.53020
39.35000,-6.55838,-6.53366
39.40000,-6.56652,-6.53441
39.45000,-6.57492,-6.53990
39.50000,-6.58332,-6.54079
39.55000,-6.59145,-6.54673
39.60000,-6.59985,-6.54716
39.65000,-6.60825,-6.55291
39.70000,-6.61678,-6.55375
39.75000,-6.62518,-6.56006
39.80000,-6.63345,-6.56213
39.85000,-6.64185,-6.56625
39.90000,-6.65038,-6.56762
39.95000,-6.65838,-6.57445
40.00000,-6.66665,-6.57199
40.05000,-6.67518,-6.57994
40.10000,-6.68332,-6.58013
40.15000,-6.69158,-6.58530
40.20000,-6.70012,-6.58689
40.25000,-6.70852,-6.59359
40.30000,-6.71665,-6.59442
40.35000,-6.72492,-6.59821
40.40000,-6.73345,-6.60061
40.45000,-6.74172,-6.60658
40.50000,-6.74998,-6.60901
40.55000,-6.75865,-6.61023
40.60000,-6.76692,-6.61912
40.65000,-6.77518,-6.61591
40.70000,-6.78358,-6.62596
40.75000,-6.79198,-6.62364
40.80000,-6.80025,-6.63225
40.85000,-6.80852,-6.63074
40.90000,-6.81665,-6.63851
40.95000,-6.82518,-6.63732
41.00000,-6.83345,-6.64602
41.05000,-6.84172,-6.64509
41.10000,-6.85025,-6.65188
41.15000,-6.85838,-6.65338
41.20000,-6.86652,-6.65815
41.25000,-6.87518,-6.65964
41.30000,-6.88372,-6.66543
41.35000,-6.89172,-6.66909
41.40000,-6.90012,-6.67167
41.45000,-6.90865,-6.67571
41.50000,-6.91678,-6.67958
41.55000,-6.92518,-6.68244
41.60000,-6.93358,-6.68866
41.65000,-6.94185,-6.68736
41.70000,-6.95012,-6.69685
41.75000,-6.95838,-6.69311
41.80000,-6.96678,-6.70417
41.85000,-6.97518,-6.70239
41.90000,-6.98345,-6.70806
41.95000,-6.99158,-6.70918
42.00000,-7.00012,-6.71380
42.05000,-7.00852,-6.71654
42.10000,-7.01678,-6.72079
42.15000,-7.02518,-6.72343
42.20000,-7.03358,-6.72703
42.25000,-7.04172,-6.73206
42.30000,-7.04998,-6.73388
42.35000,-7.05865,-6.73519
42.40000,-7.06678,-6.74132
42.45000,-7.07505,-6.74361
42.50000,-7.08332,-6.74589
42.55000,-7.09172,-6.74893
42.60000,-7.09998,-6.75308
42.65000,-7.10825,-6.75554
42.70000,-7.11665,-6.75942
42.75000,-7.12492,-6.76429
42.80000,-7.13332,-6.76318
42.85000,-7.14158,-6.77271
42.90000,-7.15012,-6.77142
42.95000,-7.15838,-6.77724
43.00000,-7.16665,-6.78114
43.05000,-7.17518,-6.78298
43.10000,-7.18372,-6.78686
43.15000,-7.19172,-6.79195
43.20000,-7.19998,-6.79243
43.25000,-7.20865,-6.79855
43.30000,-7.21678,-6.79959
43.35000,-7.22505,-6.80455
43.40000,-7.23345,-6.80578
43.45000,-7.24185,-6.81305
43.50000,-7.24985,-6.81126
43.55000,-7.25812,-6.81868
43.60000,-7.26678,-6.81929
43.65000,-7.27492,-6.82438
43.70000,-7.28332,-6.82762
43.75000,-7.29185,-6.83157
43.80000,-7.30025,-6.83631
43.85000,-7.30838,-6.83884
43.90000,-7.31665,-6.84217
43.95000,-7.32505,-6.84588
44.00000,-7.33345,-6.84929
44.05000,-7.34172,-6.85482
44.10000,-7.34985,-6.85554
44.15000,-7.35852,-6.86145
44.20000,-7.36678,-6.86343
44.25000,-7.37478,-6.86886
44.30000,-7.38345,-6.86645
44.35000,-7.39172,-6.87370
44.40000,-7.39998,-6.87437
44.45000,-7.40852,-6.87918
44.50000,-7.41705,-6.88353
44.55000,-7.42505,-6.88691
44.60000,-7.43332,-6.88815
44.65000,-7.44212,-6.89303
44.70000,-7.45025,-6.89553
44.75000,-7.45851,-6.89920
44.80000,-7.46692,-6.90098
44.85000,-7.47518,-6.90611
44.90000,-7.48332,-6.90675
44.95000,-7.49172,-6.91069
45.00000,-7.50011,-6.91208
45.05000,-7.50851,-6.91763
45.10000,-7.51678,-6.91753
45.15000,-7.52492,-6.92368
45.20000,-7.53345,-6.92406
45.25000,-7.54185,-6.92909
45.30000,-7.54998,-6.92958
45.35000,-7.55851,-6.93525
45.40000,-7.56691,-6.93637
45.45000,-7.57505,-6.94161
45.50000,-7.58332,-6.94185
45.55000,-7.59198,-6.94660
45.60000,-7.60011,-6.95022
45.65000,-7.60838,-6.95203
45.70000,-7.61665,-6.95506
45.75000,-7.62505,-6.95709
45.80000,-7.63331,-6.96143
45.85000,-7.64158,-6.96353
45.90000,-7.64998,-6.96790
45.95000,-7.65825,-6.96837
46.00000,-7.66665,-6.97396
46.05000,-7.67491,-6.97579
46.10000,-7.68345,-6.97969
46.15000,-7.69185,-6.98394
46.20000,-7.69998,-6.98544
46.25000,-7.70838,-6.98844
46.30000,-7.71678,-6.99615
46.35000,-7.72505,-6.99188
46.40000,-7.73331,-7.00083
46.45000,-7.74185,-6.99774
46.50000,-7.75011,-7.00575
46.55000,-7.75825,-7.00334
46.60000,-7.76678,-7.00979
46.65000,-7.77518,-7.01234
46.70000,-7.78331,-7.01599
46.75000,-7.79158,-7.01796
46.80000,-7.80011,-7.01890
46.85000,-7.80838,-7.02443
46.90000,-7.81665,-7.02558
46.95000,-7.82518,-7.03042
47.00000,-7.83358,-7.03092
47.05000,-7.84185,-7.03480
47.10000,-7.85011,-7.03664
47.15000,-7.85865,-7.03842
47.20000,-7.86691,-7.04371
47.25000,-7.87531,-7.04498
47.30000,-7.88345,-7.04547
47.35000,-7.89198,-7.04860
47.40000,-7.90011,-7.05175
47.45000,-7.90811,-7.05214
47.50000,-7.91678,-7.05603
47.55000,-7.92505,-7.05860
47.60000,-7.93318,-7.06048
47.65000,-7.94171,-7.06170
47.70000,-7.95025,-7.06666
47.75000,-7.95851,-7.06772
47.80000,-7.96678,-7.07037
47.85000,-7.97545,-7.07207
47.90000,-7.98345,-7.07601
47.95000,-7.99171,-7.07476
48.00000,-8.00011,-7.07982
48.05000,-8.00851,-7.08168
48.10000,-8.01678,-7.08359
48.15000,-8.02518,-7.08562
48.20000,-8.03345,-7.08888
48.25000,-8.04185,-7.08933
48.30000,-8.04998,-7.09251
48.35000,-8.05825,-7.09407
48.40000,-8.06691,-7.09597
48.45000,-8.07518,-7.09895
48.50000,-8.08331,-7.10012
48.55000,-8.09171,-7.10195
48.60000,-8.10025,-7.10485
48.65000,-8.10838,-7.10659
48.70000,-8.11665,-7.10786
48.75000,-8.12531,-7.10942
48.80000,-8.13345,-7.11198
48.85000,-8.14158,-7.11275
48.90000,-8.15011,-7.11485
48.95000,-8.15838,-7.11542
49.00000,-8.16665,-7.11746
49.05000,-8.17491,-7.11853
49.10000,-8.18331,-7.12131
49.15000,-8.19158,-7.12230
49.20000,-8.19985,-7.12399
49.25000,-8.20825,-7.12687
49.30000,-8.21678,-7.12819
49.35000,-8.22505,-7.13100
49.40000,-8.23331,-7.13293
49.45000,-8.24171,-7.13439
49.50000,-8.25011,-7.13745
49.55000,-8.25838,-7.13899
49.60000,-8.26665,-7.14061
49.65000,-8.27531,-7.14184
49.70000,-8.28345,-7.14485
49.75000,-8.29158,-7.14471
49.80000,-8.30011,-7.14733
49.85000,-8.30851,-7.15033
49.90000,-8.31665,-7.14959
49.95000,-8.32491,-7.15248
50.00000,-8.33345,-7.15385
50.05000,-8.34171,-7.15572
50.10000,-8.34998,-7.15650
50.15000,-8.35851,-7.16019
50.20000,-8.36678,-7.16076
50.25000,-8.37518,-7.16532
50.30000,-8.38358,-7.16585
50.35000,-8.39198,-7.16814
50.40000,-8.40025,-7.17096
50.45000,-8.40851,-7.17109
50.50000,-8.41665,-7.17297
50.55000,-8.42518,-7.17529
50.60000,-8.43345,-7.17903
50.65000,-8.44158,-7.17656
50.70000,-8.45025,-7.18388
50.75000,-8.45851,-7.17975
50.80000,-8.46665,-7.18835
50.85000,-8.47505,-7.18425
50.90000,-8.48371,-7.19148
50.95000,-8.49171,-7.18938
51.00000,-8.50011,-7.19332
51.05000,-8.50865,-7.19186
51.10000,-8.51678,-7.19848
51.15000,-8.52518,-7.19460
51.20000,-8.53358,-7.20124
51.25000,-8.54185,-7.19826
51.30000,-8.55011,-7.20364
51.35000,-8.55838,-7.20116
51.40000,-8.56665,-7.20588
51.45000,-8.57505,-7.20389
51.50000,-8.58345,-7.20962
51.55000,-8.59158,-7.20801
51.60000,-8.59998,-7.21049
51.65000,-8.60825,-7.21317
51.70000,-8.61638,-7.21265
51.75000,-8.62491,-7.21513
51.80000,-8.63371,-7.21831
51.85000,-8.64171,-7.21988
51.90000,-8.64998,-7.21963
51.95000,-8.65865,-7.22137
52.00000,-8.66678,-7.22463
52.05000,-8.67505,-7.22315
52.10000,-8.68345,-7.22583
52.15000,-8.69185,-7.22646
52.20000,-8.69998,-7.22802
52.25000,-8.70825,-7.22833
52.30000,-8.71665,-7.23043
52.35000,-8.72491,-7.22904
52.40000,-8.73318,-7.23082
52.45000,-8.74158,-7.23144
52.50000,-8.75011,-7.23213
52.55000,-8.75851,-7.23462
52.60000,-8.76665,-7.23643
52.65000,-8.77518,-7.23647
52.70000,-8.78358,-7.23806
52.75000,-8.79171,-7.23924
52.80000,-8.79998,-7.23979
52.85000,-8.80851,-7.23911
52.90000,-8.81678,-7.24199
52.95000,-8.82491,-7.24135
53.00000,-8.83345,-7.24254
53.05000,-8.84185,-7.24420
53.10000,-8.84998,-7.24609
53.15000,-8.85824,-7.24590
53.20000,-8.86678,-7.24766
53.25000,-8.87504,-7.24847
53.30000,-8.88345,-7.25075
53.35000,-8.89198,-7.25138
53.40000,-8.90024,-7.25379
53.45000,-8.90851,-7.25405
53.50000,-8.91678,-7.25599
53.55000,-8.92531,-7.25650
53.60000,-8.93371,-7.25889
53.65000,-8.94185,-7.26051
53.70000,-8.94998,-7.26008
53.75000,-8.95851,-7.26152
53.80000,-8.96665,-7.26293
53.85000,-8.97478,-7.26331
53.90000,-8.98331,-7.26495
53.95000,-8.99171,-7.26796
54.00000,-8.99985,-7.26925
54.05000,-9.00838,-7.27032
54.10000,-9.01704,-7.27399
54.15000,-9.02518,-7.27590
54.20000,-9.03344,-7.27725
54.25000,-9.04198,-7.27945
54.30000,-9.05024,-7.28083
54.35000,-9.05851,-7.28264
54.40000,-9.06691,-7.28486
54.45000,-9.07518,-7.28628
54.50000,-9.08358,-7.28775
54.55000,-9.09184,-7.29061
54.60000,-9.10011,-7.29156
54.65000,-9.10851,-7.29282
54.70000,-9.11678,-7.29647
54.75000,-9.12491,-7.29703
54.80000,-9.13344,-7.29897
54.85000,-9.14184,-7.30169
54.90000,-9.14998,-7.30500
54.95000,-9.15838,-7.30544
55.00000,-9.16704,-7.30873
55.05000,-9.17504,-7.31155
55.10000,-9.18331,-7.31289
55.15000,-9.19198,-7.31514
55.20000,-9.20011,-7.31829
55.25000,-9.20838,-7.31923
55.30000,-9.21664,-7.32080
55.35000,-9.22504,-7.32349
55.40000,-9.23318,-7.32389
55.45000,-9.24158,-7.32678
55.50000,-9.24998,-7.32870
55.55000,-9.25824,-7.33104
55.60000,-9.26651,-7.33265
55.65000,-9.27478,-7.33512
55.70000,-9.28344,-7.33643
55.75000,-9.29184,-7.34106
55.80000,-9.29998,-7.34262
55.85000,-9.30838,-7.34399
55.90000,-9.31691,-7.34640
55.95000,-9.32504,-7.34949
56.00000,-9.33331,-7.34990
56.05000,-9.34184,-7.35320
56.10000,-9.35011,-7.35615
56.15000,-9.35824,-7.35804
56.20000,-9.36678,-7.35868
56.25000,-9.37518,-7.36343
56.30000,-9.38331,-7.36284
56.35000,-9.39158,-7.36624
56.40000,-9.40011,-7.36760
56.45000,-9.40838,-7.37105
56.50000,-9.41664,-7.37234
56.55000,-9.42518,-7.37583
56.60000,-9.43358,-7.37679
56.65000,-9.44184,-7.38053
56.70000,-9.45024,-7.38269
56.75000,-9.45851,-7.38367
56.80000,-9.46691,-7.38650
56.85000,-9.47518,-7.38959
56.90000,-9.48331,-7.39041
56.95000,-9.49198,-7.39328
57.00000,-9.50011,-7.39652
57.05000,-9.50824,-7.39760
57.10000,-9.51678,-7.39907
57.15000,-9.52504,-7.40361
57.20000,-9.53318,-7.40420
57.25000,-9.54171,-7.40633
57.30000,-9.55038,-7.41008
57.35000,-9.55838,-7.41226
57.40000,-9.56664,-7.41435
57.45000,-9.57531,-7.41519
57.50000,-9.58344,-7.41902
57.55000,-9.59184,-7.41957
57.60000,-9.60024,-7.42307
57.65000,-9.60851,-7.42388
57.70000,-9.61691,-7.42703
57.75000,-9.62504,-7.42908
57.80000,-9.63331,-7.43065
57.85000,-9.64184,-7.43351
57.90000,-9.64998,-7.43639
57.95000,-9.65824,-7.43932
58.00000,-9.66678,-7.44087
58.05000,-9.67518,-7.44497
58.10000,-9.68331,-7.44766
58.15000,-9.69184,-7.44945
58.20000,-9.70024,-7.45269
58.25000,-9.70824,-7.45536
58.30000,-9.71664,-7.45720
58.35000,-9.72531,-7.46011
58.40000,-9.73344,-7.46405
58.45000,-9.74158,-7.46590
58.50000,-9.74998,-7.46770
58.55000,-9.75851,-7.47259
58.60000,-9.76664,-7.47444
58.65000,-9.77491,-7.47833
58.70000,-9.78331,-7.48063
58.75000,-9.79158,-7.48372
58.80000,-9.79998,-7.48516
58.85000,-9.80824,-7.48950
58.90000,-9.81664,-7.49092
58.95000,-9.82504,-7.49455
59.00000,-9.83318,-7.49694
59.05000,-9.84171,-7.49956
59.10000,-9.85011,-7.50333
59.15000,-9.85838,-7.50831
59.20000,-9.86678,-7.50854
59.25000,-9.87518,-7.51309
59.30000,-9.88344,-7.51458
59.35000,-9.89158,-7.51798
59.40000,-9.89998,-7.51791
59.45000,-9.90838,-7.52328
59.50000,-9.91651,-7.52344
59.55000,-9.92491,-7.52664
59.60000,-9.93344,-7.52936
59.65000,-9.94171,-7.53266
59.70000,-9.94998,-7.53403
59.75000,-9.95838,-7.53747
59.80000,-9.96678,-7.53984
59.85000,-9.97504,-7.54208
59.90000,-9.98318,-7.54444
59.95000,-9.99171,-7.54617
60.00000,-10.00024,-7.54966
60.05000,-10.00851,-7.55265
60.10000,-10.01678,-7.55432
60.15000,-10.02531,-7.55652
60.20000,-10.03358,-7.55948
60.25000,-10.04158,-7.56015
60.30000,-10.05011,-7.56138
60.35000,-10.05838,-7.56486
60.40000,-10.06651,-7.56599
60.45000,-10.07504,-7.56871
60.50000,-10.08371,-7.57198
60.55000,-10.09184,-7.57473
60.60000,-10.10011,-7.57551
60.65000,-10.10864,-7.57790
60.70000,-10.11691,-7.58024
60.75000,-10.12518,-7.58209
60.80000,-10.13358,-7.58369
60.85000,-10.14184,-7.58538
60.90000,-10.15011,-7.58745
60.95000,-10.15837,-7.58955
61.00000,-10.16664,-7.58854
61.05000,-10.17504,-7.59175
61.10000,-10.18344,-7.59302
61.15000,-10.19144,-7.59417
61.20000,-10.20011,-7.59539
61.25000,-10.20851,-7.60054
61.30000,-10.21651,-7.60011
61.35000,-10.22504,-7.60224
61.40000,-10.23358,-7.60537
61.45000,-10.24171,-7.60787
61.50000,-10.25011,-7.60770
61.55000,-10.25864,-7.61227
61.60000,-10.26678,-7.61422
61.65000,-10.27504,-7.61554
61.70000,-10.28344,-7.61622
61.75000,-10.29184,-7.62028
61.80000,-10.29998,-7.62035
61.85000,-10.30824,-7.62276
61.90000,-10.31664,-7.62438
61.95000,-10.32504,-7.62767
62.00000,-10.33331,-7.62947
62.05000,-10.34157,-7.63236
62.10000,-10.35024,-7.63410
62.15000,-10.35851,-7.63724
62.20000,-10.36664,-7.63931
62.25000,-10.37517,-7.63937
62.30000,-10.38358,-7.64372
62.35000,-10.39171,-7.64483
62.40000,-10.40011,-7.64681
62.45000,-10.40851,-7.64950
62.50000,-10.41678,-7.65320
62.55000,-10.42504,-7.65231
62.60000,-10.43344,-7.65731
62.65000,-10.44184,-7.66035
62.70000,-10.44997,-7.66037
62.75000,-10.45837,-7.66442
62.80000,-10.46691,-7.66825
62.85000,-10.47517,-7.66991
62.90000,-10.48331,-7.67276
62.95000,-10.49184,-7.67504
63.00000,-10.50011,-7.67803
63.05000,-10.50851,-7.67989
63.10000,-10.51677,-7.68448
63.15000,-10.52531,-7.68409
63.20000,-10.53357,-7.68880
63.25000,-10.54184,-7.69114
63.30000,-10.54997,-7.69185
63.35000,-10.55851,-7.69443
63.40000,-10.56664,-7.69787
63.45000,-10.57477,-7.69882
63.50000,-10.58344,-7.69944
63.55000,-10.59171,-7.70328
63.60000,-10.59984,-7.70468
63.65000,-10.60851,-7.70753
63.70000,-10.61691,-7.71022
63.75000,-10.62491,-7.71224
63.80000,-10.63331,-7.71271
63.85000,-10.64184,-7.71595
63.90000,-10.65011,-7.71761
63.95000,-10.65851,-7.71957
64.00000,-10.66691,-7.72116
64.05000,-10.67531,-7.72420
64.10001,-10.68357,-7.72366
64.15000,-10.69197,-7.72862
64.20000,-10.70024,-7.72819
64.25000,-10.70864,-7.73223
64.30000,-10.71677,-7.73235
64.35001,-10.72491,-7.73455
64.40000,-10.73344,-7.73510
64.45000,-10.74184,-7.74035
64.50000,-10.74997,-7.74126
64.55000,-10.75851,-7.74397
64.60001,-10.76704,-7.74684
64.65000,-10.77504,-7.74804
64.70000,-10.78344,-7.74947
64.75000,-10.79197,-7.75167
64.80000,-10.80011,-7.75466
64.85001,-10.80837,-7.75605
64.90000,-10.81677,-7.75893
64.95000,-10.82504,-7.76086
65.00000,-10.83317,-7.76250
65.05000,-10.84144,-7.76372
65.10001,-10.84997,-7.76817
65.15000,-10.85837,-7.77046
65.20000,-10.86664,-7.77282
65.25000,-10.87491,-7.77543
65.30000,-10.88331,-7.77714
65.35001,-10.89157,-7.77974
65.40000,-10.89984,-7.78220
65.45000,-10.90824,-7.78348
65.50000,-10.91677,-7.78796
65.55000,-10.92504,-7.79174
65.60001,-10.93331,-7.79292
65.65000,-10.94197,-7.79684
65.70001,-10.95011,-7.80067
65.75000,-10.95824,-7.80184
65.80000,-10.96664,-7.80377
65.85001,-10.97504,-7.80747
65.90000,-10.98317,-7.80876
65.95001,-10.99157,-7.81023
66.00000,-11.00024,-7.81533
66.05000,-11.00851,-7.81713
66.10001,-11.01677,-7.82126
66.15000,-11.02531,-7.82366
66.20001,-11.03357,-7.82726
66.25000,-11.04184,-7.82997
66.30000,-11.05024,-7.83327
66.35001,-11.05864,-7.83442
66.40000,-11.06691,-7.83949
66.45001,-11.07517,-7.84155
66.50000,-11.08344,-7.84363
66.55000,-11.09197,-7.84591
66.60001,-11.10011,-7.85082
66.65000,-11.10824,-7.85134
66.70001,-11.11677,-7.85472
66.75000,-11.12517,-7.85778
66.80000,-11.13317,-7.86052
66.85001,-11.14171,-7.86261
66.90000,-11.15024,-7.86813
66.95001,-11.15851,-7.87039
67.00000,-11.16677,-7.87447
67.05000,-11.17544,-7.87640
67.10001,-11.18357,-7.88074
67.15000,-11.19184,-7.88248
67.20001,-11.20024,-7.88647
67.25000,-11.20864,-7.88826
67.30000,-11.21677,-7.89171
67.35001,-11.22504,-7.89413
67.40000,-11.23331,-7.89674
67.45001,-11.24171,-7.89917
67.50000,-11.25011,-7.90458
67.55000,-11.25824,-7.90570
67.60001,-11.26677,-7.90961
67.65000,-11.27504,-7.91340
67.70001,-11.28317,-7.91697
67.75000,-11.29157,-7.91846
67.80000,-11.30011,-7.92288
67.85001,-11.30824,-7.92612
67.90000,-11.31664,-7.92889
67.95001,-11.32531,-7.93218
68.00000,-11.33344,-7.93733
68.05000,-11.34184,-7.93871
68.10001,-11.35024,-7.94185
68.15000,-11.35851,-7.94502
68.20001,-11.36664,-7.94772
68.25000,-11.37491,-7.95051
68.30000,-11.38317,-7.95341
68.35001,-11.39144,-7.95587
68.40000,-11.39984,-7.96020
68.45001,-11.40824,-7.96367
68.50000,-11.41677,-7.96746
68.55000,-11.42517,-7.97171
68.60001,-11.43344,-7.97608
68.65000,-11.44184,-7.97734
68.70001,-11.45024,-7.98275
68.75000,-11.45837,-7.98607
68.80000,-11.46651,-7.98799
68.85001,-11.47517,-7.99136
68.90000,-11.48344,-7.99667
68.95001,-11.49157,-7.99782
69.00000,-11.50011,-8.00171
69.05000,-11.50837,-8.00469
69.10001,-11.51650,-8.00793
69.15000,-11.52491,-8.01198
69.20001,-11.53357,-8.01591
69.25000,-11.54184,-8.01838
69.30000,-11.55011,-8.02334
69.35001,-11.55864,-8.02305
69.40000,-11.56691,-8.03263
69.45001,-11.57517,-8.03113
69.50000,-11.58357,-8.03808
69.55000,-11.59197,-8.03927
69.60001,-11.60024,-8.04438
69.65000,-11.60850,-8.04785
69.70001,-11.61677,-8.05199
69.75000,-11.62530,-8.05290
69.80000,-11.63344,-8.05884
69.85001,-11.64157,-8.06111
69.90000,-11.65011,-8.06395
69.95001,-11.65837,-8.07041
70.00000,-11.66664,-8.07202
70.05000,-11.67517,-8.07661
70.10001,-11.68357,-8.08194
70.15000,-11.69171,-8.08291
70.20001,-11.70010,-8.08819
70.25000,-11.70864,-8.09068
70.30000,-11.71677,-8.09469
70.35001,-11.72517,-8.09737
70.40000,-11.73357,-8.10273
70.45001,-11.74184,-8.10429
70.50000,-11.75010,-8.11001
70.55000,-11.75837,-8.11442
70.60001,-11.76677,-8.11436
70.65000,-11.77517,-8.12230
70.70001,-11.78344,-8.12213
70.75000,-11.79157,-8.12772
70.80000,-11.80010,-8.13047
70.85001,-11.80837,-8.13700
70.90000,-11.81650,-8.13792
70.95001,-11.82504,-8.14455
71.00000,-11.83357,-8.14699
71.05000,-11.84170,-8.15112
71.10001,-11.85010,-8.15411
71.15000,-11.85864,-8.16029
71.20001,-11.86677,-8.16156
71.25000,-11.87504,-8.16772
71.30000,-11.88344,-8.16713
71.35001,-11.89170,-8.17558
71.40000,-11.89984,-8.17510
71.45001,-11.90810,-8.18117
71.50000,-11.91650,-8.18417
71.55000,-11.92490,-8.18863
71.60001,-11.93330,-8.19253
71.65000,-11.94157,-8.19799
71.70001,-11.95010,-8.20065
71.75000,-11.95837,-8.20602
71.80000,-11.96664,-8.21133
71.85001,-11.97490,-8.21330
71.90000,-11.98344,-8.21918
71.95001,-11.99170,-8.22377
72.00000,-11.99997,-8.22618
72.05000,-12.00850,-8.23113
72.10001,-12.01677,-8.23550
72.15000,-12.02490,-8.23875
72.20001,-12.03344,-8.24199
72.25000,-12.04184,-8.24852
72.30000,-12.04984,-8.24974
72.35001,-12.05810,-8.25371
72.40000,-12.06677,-8.25840
72.45001,-12.07517,-8.26437
72.50000,-12.08344,-8.26817
72.55000,-12.09197,-8.27335
72.60001,-12.10024,-8.27718
72.65000,-12.10850,-8.28200
72.70001,-12.11690,-8.28619
72.75000,-12.12530,-8.28977
72.80000,-12.13370,-8.29506
72.85001,-12.14184,-8.29936
72.90000,-12.14997,-8.30124
72.95001,-12.15850,-8.30622
73.00000,-12.16677,-8.31162
73.05000,-12.17490,-8.31400
73.10001,-12.18344,-8.31846
73.15000,-12.19170,-8.32334
73.20001,-12.19984,-8.32618
73.25000,-12.20837,-8.33064
73.30000,-12.21690,-8.33601
73.35001,-12.22504,-8.34024
73.40000,-12.23344,-8.34086
73.45001,-12.24197,-8.34213
73.50000,-12.25010,-8.34305
73.55000,-12.25850,-8.35051
73.60001,-12.26690,-8.35244
73.65000,-12.27517,-8.35949
73.70001,-12.28344,-8.35962
73.75000,-12.29184,-8.36610
73.80000,-12.29997,-8.36870
73.85001,-12.30850,-8.37411
73.90000,-12.31664,-8.37703
73.95001,-12.32490,-8.38116
74.00000,-12.33357,-8.38407
74.05000,-12.34184,-8.39084
74.10001,-12.34997,-8.39303
74.15000,-12.35850,-8.39752
74.20001,-12.36690,-8.40165
74.25000,-12.37504,-8.40528
74.30000,-12.38330,-8.40928
74.35001,-12.39197,-8.41168
74.40000,-12.39997,-8.41958
74.45001,-12.40824,-8.41884
74.50000,-12.41664,-8.42472
74.55000,-12.42490,-8.42772
74.60001,-12.43317,-8.43184
74.65000,-12.44157,-8.43578
74.70001,-12.44997,-8.44059
74.75000,-12.45824,-8.44451
74.80000,-12.46650,-8.44936
74.85001,-12.47490,-8.45209
74.90000,-12.48344,-8.45761
74.95001,-12.49170,-8.46151
75.00000,-12.49997,-8.46771
75.05000,-12.50850,-8.46878
75.10001,-12.51690,-8.47608
75.15000,-12.52504,-8.47978
75.20001,-12.53344,-8.48246
75.25000,-12.54184,-8.48644
75.30000,-12.55010,-8.49140
75.35001,-12.55824,-8.49382
75.40000,-12.56677,-8.49825
75.45001,-12.57504,-8.50323
75.50000,-12.58317,-8.50666
75.55000,-12.59157,-8.51036
75.60001,-12.60024,-8.51575
75.65000,-12.60850,-8.52122
75.70001,-12.61664,-8.52456
75.75000,-12.62504,-8.52910
75.80000,-12.63330,-8.53309
75.85001,-12.64170,-8.53817
75.90000,-12.65024,-8.54365
75.95001,-12.65864,-8.54768
76.00000,-12.66704,-8.55356
76.05000,-12.67530,-8.55796
76.10001,-12.68344,-8.56107
76.15000,-12.69197,-8.56596
76.20001,-12.70024,-8.57216
76.25000,-12.70837,-8.57435
76.30000,-12.71677,-8.57891
76.35001,-12.72517,-8.58317
76.40000,-12.73330,-8.58705
76.45001,-12.74170,-8.59090
76.50000,-12.75024,-8.59785
76.55000,-12.75850,-8.60156
76.60001,-12.76690,-8.60582
76.65000,-12.77544,-8.61122
76.70001,-12.78357,-8.61638
76.75000,-12.79184,-8.61943
76.80000,-12.80037,-8.62473
76.85001,-12.80850,-8.62917
76.90000,-12.81677,-8.63237
76.95001,-12.82517,-8.63739
77.00000,-12.83344,-8.64189
77.05000,-12.84184,-8.64691
77.10001,-12.85010,-8.65138
77.15000,-12.85824,-8.65398
77.20001,-12.86677,-8.65906
77.25000,-12.87517,-8.66547
77.30000,-12.88330,-8.66841
77.35001,-12.89170,-8.67401
77.40000,-12.90024,-8.67911
77.45001,-12.90837,-8.68504
77.50000,-12.91677,-8.68697
77.55000,-12.92530,-8.69237
77.60001,-12.93343,-8.69776
77.65000,-12.94170,-8.70117
77.70001,-12.94997,-8.70517
77.75000,-12.95824,-8.70979
77.80000,-12.96650,-8.71317
77.85001,-12.97477,-8.71752
77.90000,-12.98317,-8.72242
77.95001,-12.99143,-8.72690
78.00000,-12.99983,-8.73172
78.05000,-13.00810,-8.73720
78.10001,-13.01677,-8.74114
78.15000,-13.02504,-8.74835
78.20001,-13.03330,-8.75276
78.25000,-13.04170,-8.75449
78.30000,-13.05010,-8.76224
78.35001,-13.05837,-8.76696
78.40000,-13.06677,-8.77154
78.45001,-13.07530,-8.77411
78.50000,-13.08343,-8.78132
78.55000,-13.09157,-8.78198
78.60001,-13.10010,-8.78743
78.65000,-13.10850,-8.79245
78.70001,-13.11663,-8.79592
78.75000,-13.12490,-8.80022
78.80000,-13.13343,-8.80310
78.85001,-13.14170,-8.80863
78.90000,-13.14997,-8.81084
78.95001,-13.15850,-8.81772
79.00000,-13.16677,-8.82084
79.05000,-13.17517,-8.82661
79.10001,-13.18357,-8.83166
79.15000,-13.19197,-8.83636
79.20001,-13.20037,-8.84004
79.25000,-13.20850,-8.84680
79.30000,-13.21663,-8.84546
79.35001,-13.22517,-8.85373
79.40000,-13.23357,-8.85634
79.45001,-13.24157,-8.86367
79.50000,-13.25010,-8.86422
79.55000,-13.25837,-8.87190
79.60001,-13.26663,-8.87588
79.65000,-13.27517,-8.87990
79.70001,-13.28357,-8.88886
79.75000,-13.29157,-8.88974
79.80000,-13.29997,-8.89713
79.85001,-13.30850,-8.89898
79.90000,-13.31677,-8.90967
79.95001,-13.32517,-8.91091
80.00000,-13.33357,-8.92051
80.05000,-13.34197,-8.92183
80.10001,-13.35010,-8.92783
80.15000,-13.35837,-8.93080
80.20001,-13.36677,-8.93760
80.25000,-13.37517,-8.94101
80.30000,-13.38343,-8.94828
80.35001,-13.39143,-8.94914
80.40000,-13.40010,-8.95665
80.45001,-13.40837,-8.96067
80.50001,-13.41650,-8.96694
80.55000,-13.42503,-8.97061
80.60001,-13.43357,-8.97741
80.65000,-13.44157,-8.98374
80.70001,-13.45010,-8.98660
80.75001,-13.45863,-8.99437
80.80000,-13.46677,-8.99714
80.85001,-13.47503,-9.00359
80.90000,-13.48343,-9.00602
80.95001,-13.49170,-9.01155
81.00001,-13.49997,-9.01453
81.05000,-13.50823,-9.02019
81.10001,-13.51663,-9.02435
81.15000,-13.52490,-9.02918
81.20001,-13.53330,-9.03500
81.25001,-13.54157,-9.04037
81.30000,-13.55010,-9.04260
81.35001,-13.55837,-9.05111
81.40000,-13.56663,-9.05462
81.45001,-13.57503,-9.05890
81.50001,-13.58343,-9.06619
81.55000,-13.59170,-9.07091
81.60001,-13.59997,-9.07633
81.65000,-13.60863,-9.08016
81.70001,-13.61677,-9.08922
81.75001,-13.62490,-9.09015
81.80000,-13.63343,-9.09711
81.85001,-13.64183,-9.10262
81.90000,-13.64983,-9.10742
81.95001,-13.65823,-9.11145
82.00001,-13.66677,-9.11933
82.05000,-13.67490,-9.12447
82.10001,-13.68317,-9.13046
82.15000,-13.69183,-9.13566
82.20001,-13.70023,-9.14322
82.25001,-13.70850,-9.14652
82.30000,-13.71690,-9.15326
82.35001,-13.72530,-9.15631
82.40000,-13.73357,-9.16320
82.45001,-13.74183,-9.16770
82.50001,-13.75010,-9.17193
82.55000,-13.75863,-9.17869
82.60001,-13.76690,-9.18356
82.65000,-13.77490,-9.18869
82.70001,-13.78357,-9.19297
82.75001,-13.79170,-9.20096
82.80000,-13.79983,-9.20385
82.85001,-13.80837,-9.21100
82.90000,-13.81703,-9.21900
82.95001,-13.82503,-9.22489
83.00001,-13.83343,-9.22838
83.05000,-13.84197,-9.23500
83.10001,-13.85010,-9.23995
83.15000,-13.85850,-9.24563
83.20001,-13.86690,-9.25157
83.25001,-13.87530,-9.25717
83.30000,-13.88343,-9.26235
83.35001,-13.89170,-9.26752
83.40000,-13.89997,-9.27019
83.45001,-13.90837,-9.27711
83.50001,-13.91663,-9.28260
83.55000,-13.92477,-9.28774
83.60001,-13.93343,-9.29212
83.65000,-13.94183,-9.30107
83.70001,-13.94983,-9.30575
83.75001,-13.95837,-9.31144
83.80000,-13.96690,-9.31822
83.85001,-13.97490,-9.32546
83.90000,-13.98330,-9.33044
83.95001,-13.99197,-9.33926
84.00001,-14.00023,-9.34641
84.05000,-14.00850,-9.35240
84.10001,-14.01677,-9.35518
84.15000,-14.02503,-9.36405
84.20001,-14.03330,-9.36640
84.25001,-14.04157,-9.37404
84.30000,-14.04997,-9.37894
84.35001,-14.05823,-9.38606
84.40000,-14.06663,-9.39323
84.45001,-14.07490,-9.40015
84.50001,-14.08343,-9.40607
84.55000,-14.09183,-9.41412
84.60001,-14.09997,-9.42102
84.65000,-14.10850,-9.42485
84.70001,-14.11690,-9.43318
84.75001,-14.12503,-9.43957
84.80000,-14.13330,-9.44410
84.85001,-14.14197,-9.45070
84.90000,-14.15010,-9.45887
84.95001,-14.15823,-9.46183
85.00001,-14.16677,-9.46871
85.05000,-14.17517,-9.47629
85.10001,-14.18317,-9.48213
85.15000,-14.19157,-9.48694
85.20001,-14.20010,-9.49570
85.25001,-14.20837,-9.50256
85.30000,-14.21676,-9.51019
85.35001,-14.22530,-9.51749
85.40000,-14.23356,-9.52521
85.45001,-14.24183,-9.53142
85.50001,-14.25010,-9.53883
85.55000,-14.25863,-9.54460
85.60001,-14.26690,-9.55360
85.65000,-14.27517,-9.56096
85.70001,-14.28343,-9.56684
85.75001,-14.29183,-9.57386
85.80000,-14.29997,-9.58143
85.85001,-14.30810,-9.58650
85.90000,-14.31676,-9.59364
85.95001,-14.32503,-9.60321
86.00001,-14.33330,-9.61028
86.05000,-14.34183,-9.61815
86.10001,-14.35036,-9.62702
86.15000,-14.35836,-9.63460
86.20001,-14.36663,-9.63923
86.25001,-14.37530,-9.64691
86.30000,-14.38343,-9.65515
86.35001,-14.39170,-9.66105
86.40000,-14.40010,-9.66734
86.45001,-14.40850,-9.67632
86.50001,-14.41676,-9.68155
86.55000,-14.42503,-9.68977
86.60001,-14.43330,-9.69476
86.65000,-14.44183,-9.70284
86.70001,-14.44996,-9.70961
86.75001,-14.45810,-9.71539
86.80000,-14.46676,-9.72121
86.85001,-14.47516,-9.73213
86.90000,-14.48330,-9.73797
86.95001,-14.49170,-9.74494
87.00001,-14.50023,-9.75240
87.05000,-14.50836,-9.76199
87.10001,-14.51676,-9.76542
87.15000,-14.52530,-9.77413
87.20001,-14.53356,-9.78173
87.25001,-14.54170,-9.78780
87.30000,-14.55010,-9.79346
87.35001,-14.55836,-9.80330
87.40000,-14.56650,-9.80721
87.45001,-14.57490,-9.81697
87.50001,-14.58330,-9.82203
87.55000,-14.59156,-9.83134
87.60001,-14.59996,-9.83815
87.65000,-14.60823,-9.84785
87.70001,-14.61663,-9.85217
87.75001,-14.62503,-9.86321
87.80000,-14.63316,-9.86981
87.85001,-14.64156,-9.87744
87.90000,-14.65023,-9.88763
87.95001,-14.65850,-9.89861
88.00001,-14.66663,-9.90191
88.05000,-14.67516,-9.91112
88.10001,-14.68343,-9.91841
88.15000,-14.69156,-9.92521
88.20001,-14.70010,-9.93029
88.25001,-14.70850,-9.94227
88.30000,-14.71650,-9.94521
88.35001,-14.72476,-9.95516
88.40000,-14.73343,-9.96226
88.45001,-14.74170,-9.97305
88.50001,-14.75010,-9.98056
88.55000,-14.75850,-9.98937
88.60001,-14.76690,-9.99604
88.65000,-14.77516,-10.00640
88.70001,-14.78356,-10.01495
88.75001,-14.79183,-10.02176
88.80000,-14.80023,-10.03025
88.85001,-14.80850,-10.04009
88.90000,-14.81676,-10.04358
88.95001,-14.82516,-10.05397
89.00001,-14.83343,-10.06105
89.05000,-14.84156,-10.06917
89.10001,-14.85010,-10.07508
89.15000,-14.85836,-10.08655
89.20001,-14.86650,-10.09236
89.25001,-14.87503,-10.10086
89.30000,-14.88356,-10.10958
89.35001,-14.89170,-10.11699
89.40000,-14.90010,-10.12403
89.45001,-14.90876,-10.13226
89.50001,-14.91690,-10.14198
89.55000,-14.92516,-10.14805
89.60001,-14.93356,-10.15624
89.65000,-14.94196,-10.16432
89.70001,-14.95023,-10.17238
89.75001,-14.95850,-10.17939
89.80000,-14.96676,-10.18780
89.85001,-14.97516,-10.19626
89.90000,-14.98356,-10.20516
89.95001,-14.99156,-10.20977
90.00001,-15.00010,-10.21761
90.05000,-15.00850,-10.22731
90.10001,-15.01663,-10.23490
90.14201,-15.02383,-10.23942
