Time,Extension,Load
(sec),(mm),(N)
0.00000,-0.00027,-0.34311
0.05000,-0.00187,-0.34349
0.10000,-0.00707,-0.34877
0.15000,-0.01653,-0.36221
0.20000,-0.02680,-0.37861
0.25000,-0.03667,-0.39490
0.30000,-0.04653,-0.40854
0.35000,-0.05573,-0.42249
0.40000,-0.06467,-0.43483
0.45000,-0.07387,-0.44738
0.50000,-0.08253,-0.45937
0.55000,-0.09093,-0.47089
0.60000,-0.09973,-0.48254
0.65000,-0.10827,-0.49340
0.70000,-0.11653,-0.50511
0.75000,-0.12507,-0.51569
0.80000,-0.13347,-0.52583
0.85000,-0.14187,-0.53858
0.90000,-0.15013,-0.54710
0.95000,-0.15853,-0.55962
1.00000,-0.16693,-0.56906
1.05000,-0.17507,-0.57928
1.10000,-0.18333,-0.59091
1.15000,-0.19187,-0.59962
1.20000,-0.20027,-0.61205
1.25000,-0.20853,-0.62160
1.30000,-0.21680,-0.63244
1.35000,-0.22547,-0.64335
1.40000,-0.23373,-0.65424
1.45000,-0.24187,-0.66351
1.50000,-0.25040,-0.67471
1.55000,-0.25893,-0.68515
1.60000,-0.26693,-0.69500
1.65000,-0.27520,-0.70571
1.70000,-0.28373,-0.71594
1.75000,-0.29187,-0.72610
1.80000,-0.30013,-0.73709
1.85000,-0.30853,-0.74633
1.90000,-0.31680,-0.75761
1.95000,-0.32507,-0.76753
2.00000,-0.33347,-0.77767
2.05000,-0.34200,-0.78806
2.10000,-0.35027,-0.79905
2.15000,-0.35867,-0.80897
2.20000,-0.36693,-0.82074
2.25000,-0.37547,-0.82908
2.30000,-0.38373,-0.84194
2.35000,-0.39200,-0.85058
2.40000,-0.40053,-0.86164
2.45000,-0.40880,-0.87169
2.50000,-0.41680,-0.88253
2.55000,-0.42520,-0.89143
2.60000,-0.43373,-0.90340
2.65000,-0.44173,-0.91316
2.70000,-0.45000,-0.92345
2.75000,-0.45867,-0.93388
2.80000,-0.46693,-0.94467
2.85000,-0.47520,-0.95469
2.90000,-0.48373,-0.96544
2.95000,-0.49200,-0.97583
3.00000,-0.50040,-0.98593
3.05000,-0.50867,-0.99672
3.10000,-0.51693,-1.00755
3.15000,-0.52547,-1.01777
3.20000,-0.53373,-1.02798
3.25000,-0.54187,-1.03868
3.30000,-0.55040,-1.04898
3.35000,-0.55867,-1.05926
3.40000,-0.56680,-1.06972
3.45000,-0.57520,-1.08061
3.50000,-0.58360,-1.09015
3.55000,-0.59173,-1.10155
3.60000,-0.60013,-1.11191
3.65000,-0.60880,-1.12248
3.70000,-0.61707,-1.13354
3.75000,-0.62533,-1.14341
3.80000,-0.63373,-1.15461
3.85000,-0.64213,-1.16448
3.90000,-0.65027,-1.17476
3.95000,-0.65880,-1.18610
4.00000,-0.66707,-1.19587
4.05000,-0.67533,-1.20638
4.10000,-0.68360,-1.21717
4.15000,-0.69186,-1.22741
4.20000,-0.70026,-1.23777
4.25000,-0.70853,-1.24826
4.30000,-0.71666,-1.25858
4.35000,-0.72533,-1.26881
4.40000,-0.73373,-1.28020
4.45000,-0.74200,-1.29038
4.50000,-0.75026,-1.30087
4.55000,-0.75880,-1.31069
4.60000,-0.76706,-1.32186
4.65000,-0.77533,-1.33240
4.70000,-0.78386,-1.34216
4.75000,-0.79213,-1.35320
4.80000,-0.80013,-1.36326
4.85000,-0.80853,-1.37318
4.90000,-0.81706,-1.38404
4.95000,-0.82520,-1.39387
5.00000,-0.83346,-1.40539
5.05000,-0.84186,-1.41352
5.10000,-0.85013,-1.42637
5.15000,-0.85840,-1.43523
5.20000,-0.86680,-1.44591
5.25000,-0.87520,-1.45556
5.30000,-0.88373,-1.46869
5.35000,-0.89200,-1.47711
5.40000,-0.90040,-1.48786
5.45000,-0.90893,-1.49861
5.50000,-0.91720,-1.51017
5.55000,-0.92520,-1.51896
5.60000,-0.93373,-1.52992
5.65000,-0.94213,-1.54108
5.70000,-0.95013,-1.55038
5.75000,-0.95853,-1.56113
5.80000,-0.96693,-1.57173
5.85000,-0.97506,-1.58212
5.90000,-0.98333,-1.59214
5.95000,-0.99186,-1.60217
6.00000,-1.00013,-1.61490
6.05000,-1.00853,-1.62314
6.10000,-1.01706,-1.63592
6.15000,-1.02533,-1.64512
6.20000,-1.03373,-1.65723
6.25000,-1.04213,-1.66644
6.30000,-1.05040,-1.67791
6.35000,-1.05866,-1.68687
6.40000,-1.06693,-1.69882
6.45000,-1.07506,-1.70820
6.50000,-1.08360,-1.71969
6.55000,-1.09186,-1.72935
6.60000,-1.10000,-1.74138
6.65000,-1.10853,-1.75050
6.70000,-1.11693,-1.76184
6.75000,-1.12506,-1.77249
6.80000,-1.13346,-1.78296
6.85000,-1.14213,-1.79302
6.90000,-1.15040,-1.80493
6.95000,-1.15880,-1.81390
7.00000,-1.16733,-1.82679
7.05000,-1.17546,-1.83534
7.10000,-1.18373,-1.84693
7.15000,-1.19213,-1.85644
7.20000,-1.20040,-1.86839
7.25000,-1.20866,-1.87586
7.30000,-1.21706,-1.88998
7.35000,-1.22533,-1.89793
7.40000,-1.23373,-1.90993
7.45000,-1.24200,-1.91889
7.50000,-1.25013,-1.93030
7.55000,-1.25853,-1.94022
7.60000,-1.26706,-1.95121
7.65000,-1.27520,-1.96254
7.70000,-1.28360,-1.97181
7.75000,-1.29226,-1.98271
7.80000,-1.30040,-1.99321
7.85000,-1.30840,-2.00376
7.90000,-1.31693,-2.01296
7.95000,-1.32546,-2.02438
8.00000,-1.33346,-2.03499
8.05000,-1.34200,-2.04462
8.10000,-1.35040,-2.05595
8.15000,-1.35853,-2.06569
8.20000,-1.36666,-2.07600
8.25000,-1.37520,-2.08604
8.30000,-1.38346,-2.09677
8.35000,-1.39186,-2.10659
8.40000,-1.40026,-2.11730
8.45000,-1.40880,-2.12810
8.50000,-1.41706,-2.13839
8.55000,-1.42520,-2.14752
8.60000,-1.43346,-2.15895
8.65000,-1.44200,-2.16748
8.70000,-1.45040,-2.17942
8.75000,-1.45853,-2.18832
8.80000,-1.46706,-2.19943
8.85000,-1.47546,-2.20890
8.90000,-1.48346,-2.22018
8.95000,-1.49200,-2.22805
9.00000,-1.50040,-2.23960
9.05000,-1.50840,-2.24850
9.10000,-1.51680,-2.25923
9.15000,-1.52533,-2.26748
9.20000,-1.53360,-2.28156
9.25000,-1.54186,-2.28673
9.30000,-1.55040,-2.29915
9.35000,-1.55866,-2.31016
9.40000,-1.56706,-2.31882
9.45000,-1.57546,-2.32861
9.50000,-1.58373,-2.33879
9.55000,-1.59213,-2.34946
9.60000,-1.60040,-2.35728
9.65000,-1.60866,-2.37027
9.70000,-1.61706,-2.37575
9.75000,-1.62546,-2.38934
9.80000,-1.63346,-2.39626
9.85000,-1.64186,-2.40830
9.90000,-1.65026,-2.41342
9.95000,-1.65840,-2.42847
10.00000,-1.66680,-2.43315
10.05000,-1.67533,-2.44792
10.10000,-1.68346,-2.45193
10.15000,-1.69186,-2.46641
10.20000,-1.70040,-2.47174
10.25000,-1.70866,-2.48532
10.30000,-1.71693,-2.48975
10.35000,-1.72560,-2.50617
10.40000,-1.73386,-2.50796
10.45000,-1.74200,-2.52373
10.50000,-1.75040,-2.52776
10.55000,-1.75880,-2.54188
10.60000,-1.76706,-2.54608
10.65000,-1.77533,-2.56022
10.70000,-1.78346,-2.56419
10.75000,-1.79186,-2.57587
10.80000,-1.80040,-2.58239
10.85000,-1.80853,-2.59367
10.90000,-1.81693,-2.59608
10.95000,-1.82560,-2.60771
11.00000,-1.83386,-2.58112
11.05000,-1.84200,-2.57649
11.10000,-1.85040,-2.56514
11.15000,-1.85880,-2.58217
11.20000,-1.86693,-2.57639
11.25000,-1.87520,-2.46692
11.30000,-1.88360,-2.43197
11.35000,-1.89173,-2.44559
11.40000,-1.90013,-2.45387
11.45000,-1.90853,-2.47319
11.50000,-1.91680,-2.48553
11.55000,-1.92506,-2.50564
11.60000,-1.93346,-2.51572
11.65000,-1.94186,-2.53324
11.70000,-1.95040,-2.54099
11.75000,-1.95866,-2.55893
11.80000,-1.96693,-2.56636
11.85000,-1.97533,-2.58369
11.90000,-1.98360,-2.59049
11.95000,-1.99186,-2.60711
12.00000,-2.00040,-2.61160
12.05000,-2.00880,-2.62811
12.10000,-2.01680,-2.63303
12.15000,-2.02506,-2.64725
12.20000,-2.03359,-2.65118
12.25000,-2.04173,-2.66650
12.30000,-2.05000,-2.67235
12.35000,-2.05879,-2.68930
12.40000,-2.06706,-2.69482
12.45000,-2.07533,-2.70559
12.50000,-2.08373,-2.70257
12.55000,-2.09213,-2.71648
12.60000,-2.10039,-2.72220
12.65000,-2.10879,-2.73916
12.70000,-2.11706,-2.74421
12.75000,-2.12546,-2.76069
12.80000,-2.13386,-2.76615
12.85000,-2.14186,-2.78187
12.90000,-2.15039,-2.78578
12.95000,-2.15879,-2.80190
13.00000,-2.16679,-2.80686
13.05000,-2.17519,-2.82111
13.10000,-2.18373,-2.82841
13.15000,-2.19173,-2.83849
13.20000,-2.20013,-2.84757
13.25000,-2.20879,-2.85853
13.30000,-2.21693,-2.86846
13.35000,-2.22519,-2.87558
13.40000,-2.23373,-2.88702
13.45000,-2.24213,-2.89503
13.50000,-2.25013,-2.90317
13.55000,-2.25853,-2.91069
13.60000,-2.26679,-2.92156
13.65000,-2.27506,-2.92752
13.70000,-2.28333,-2.93748
13.75000,-2.29173,-2.94505
13.80000,-2.30026,-2.95563
13.85000,-2.30853,-2.96103
13.90000,-2.31666,-2.97190
13.95000,-2.32519,-2.97738
14.00000,-2.33359,-2.98864
14.05000,-2.34186,-2.99468
14.10000,-2.35026,-3.00268
14.15000,-2.35879,-3.00921
14.20000,-2.36706,-3.01843
14.25000,-2.37533,-3.02449
14.30000,-2.38386,-3.03298
14.35000,-2.39226,-3.03936
14.40000,-2.40039,-3.04819
14.45000,-2.40866,-3.05360
14.50000,-2.41706,-3.06293
14.55000,-2.42533,-3.07007
14.60000,-2.43359,-3.07812
14.65000,-2.44186,-3.08494
14.70000,-2.45013,-3.09302
14.75000,-2.45839,-3.09881
14.80000,-2.46693,-3.10728
14.85000,-2.47533,-3.11327
14.90000,-2.48373,-3.12221
14.95000,-2.49199,-3.12839
15.00000,-2.50039,-3.13442
15.05000,-2.50893,-3.13944
15.10000,-2.51706,-3.14895
15.15000,-2.52519,-3.15044
15.20000,-2.53373,-3.15960
15.25000,-2.54213,-3.16341
15.30000,-2.54999,-3.17235
15.35000,-2.55826,-3.17715
15.40000,-2.56693,-3.18500
15.45000,-2.57506,-3.18945
15.50000,-2.58333,-3.19871
15.55000,-2.59199,-3.20396
15.60000,-2.60039,-3.21365
15.65000,-2.60866,-3.21838
15.70000,-2.61719,-3.22829
15.75000,-2.62546,-3.23363
15.80000,-2.63373,-3.24307
15.85000,-2.64213,-3.24830
15.90000,-2.65039,-3.25894
15.95000,-2.65866,-3.26560
16.00000,-2.66706,-3.27473
16.05000,-2.67519,-3.28200
16.10000,-2.68359,-3.28877
16.15000,-2.69186,-3.29802
16.20000,-2.69986,-3.30476
16.25000,-2.70839,-3.31264
16.30000,-2.71706,-3.32265
16.35000,-2.72506,-3.33051
16.40000,-2.73359,-3.33703
16.45000,-2.74226,-3.34641
16.50000,-2.75039,-3.35490
16.55000,-2.75866,-3.36086
16.60000,-2.76719,-3.36923
16.65000,-2.77546,-3.37858
16.70000,-2.78359,-3.38405
16.75000,-2.79213,-3.39273
16.80000,-2.80053,-3.40074
16.85000,-2.80866,-3.40765
16.90000,-2.81693,-3.41578
16.95000,-2.82519,-3.42360
17.00000,-2.83373,-3.43026
17.05000,-2.84199,-3.43598
17.10000,-2.85026,-3.44756
17.15000,-2.85866,-3.45070
17.20000,-2.86693,-3.46035
17.25000,-2.87519,-3.46626
17.30000,-2.88359,-3.47605
17.35000,-2.89213,-3.48032
17.40000,-2.90039,-3.49194
17.45000,-2.90866,-3.49573
17.50000,-2.91719,-3.50564
17.55000,-2.92559,-3.51033
17.60000,-2.93359,-3.52045
17.65000,-2.94186,-3.52380
17.70000,-2.95039,-3.53343
17.75000,-2.95853,-3.53761
17.80000,-2.96666,-3.54735
17.85000,-2.97519,-3.55164
17.90000,-2.98346,-3.56097
17.95000,-2.99186,-3.56635
18.00000,-3.00026,-3.57455
18.05000,-3.00866,-3.57963
18.10000,-3.01706,-3.58878
18.15000,-3.02533,-3.59400
18.20000,-3.03359,-3.60180
18.25000,-3.04226,-3.60666
18.30000,-3.05039,-3.61514
18.35000,-3.05853,-3.61885
18.40000,-3.06706,-3.62559
18.45000,-3.07533,-3.63111
18.50000,-3.08346,-3.63741
18.55000,-3.09186,-3.64219
18.60000,-3.10039,-3.64861
18.65000,-3.10853,-3.65501
18.70000,-3.11666,-3.66040
18.75000,-3.12533,-3.66685
18.80000,-3.13359,-3.67340
18.85000,-3.14186,-3.67856
18.90000,-3.15039,-3.68432
18.95000,-3.15866,-3.69013
19.00000,-3.16706,-3.69707
19.05000,-3.17546,-3.70329
19.10000,-3.18373,-3.70904
19.15000,-3.19199,-3.71604
19.20000,-3.20039,-3.72041
19.25000,-3.20853,-3.72763
19.30000,-3.21706,-3.73245
19.35000,-3.22533,-3.73944
19.40000,-3.23346,-3.74437
19.45000,-3.24186,-3.75130
19.50000,-3.25026,-3.75588
19.55000,-3.25839,-3.76220
19.60000,-3.26679,-3.76689
19.65000,-3.27546,-3.77384
19.70000,-3.28373,-3.77950
19.75000,-3.29186,-3.78576
19.80000,-3.30039,-3.79025
19.85000,-3.30879,-3.79750
19.90000,-3.31706,-3.80294
19.95000,-3.32546,-3.80925
20.00000,-3.33386,-3.81370
20.05000,-3.34199,-3.82086
20.10000,-3.35013,-3.82624
20.15000,-3.35839,-3.83047
20.20000,-3.36693,-3.83513
20.25000,-3.37519,-3.84231
20.30000,-3.38346,-3.84759
20.35000,-3.39186,-3.85289
20.40000,-3.40053,-3.85942
20.45000,-3.40866,-3.86368
20.50000,-3.41692,-3.86875
20.55000,-3.42546,-3.87374
20.60000,-3.43372,-3.87981
20.65000,-3.44186,-3.88419
20.70000,-3.45039,-3.89083
20.75000,-3.45892,-3.89663
20.80000,-3.46692,-3.90137
20.85000,-3.47532,-3.90532
20.90000,-3.48372,-3.91080
20.95000,-3.49186,-3.91519
21.00000,-3.50012,-3.92006
21.05000,-3.50852,-3.92530
21.10000,-3.51679,-3.92959
21.15000,-3.52506,-3.93587
21.20000,-3.53346,-3.94213
21.25000,-3.54186,-3.94789
21.30000,-3.55039,-3.95408
21.35000,-3.55866,-3.96169
21.40000,-3.56692,-3.96526
21.45000,-3.57546,-3.97208
21.50000,-3.58372,-3.97806
21.55000,-3.59186,-3.98435
21.60000,-3.60026,-3.98869
21.65000,-3.60866,-3.99553
21.70000,-3.61666,-4.00033
21.75000,-3.62506,-4.00654
21.80000,-3.63372,-4.01260
21.85000,-3.64172,-4.01852
21.90000,-3.64999,-4.02304
21.95000,-3.65866,-4.02932
22.00000,-3.66692,-4.03561
22.05000,-3.67519,-4.04051
22.10000,-3.68359,-4.04631
22.15000,-3.69199,-4.05253
22.20000,-3.70039,-4.05681
22.25000,-3.70879,-4.06294
22.30000,-3.71706,-4.06833
22.35000,-3.72546,-4.07420
22.40000,-3.73372,-4.07856
22.45000,-3.74186,-4.08212
22.50000,-3.75039,-4.09025
22.55000,-3.75879,-4.09308
22.60000,-3.76679,-4.09960
22.65000,-3.77532,-4.10436
22.70000,-3.78372,-4.11042
22.75000,-3.79172,-4.11370
22.80000,-3.80012,-4.11963
22.85000,-3.80879,-4.12478
22.90000,-3.81706,-4.12948
22.95000,-3.82519,-4.13429
23.00000,-3.83372,-4.13995
23.05000,-3.84212,-4.14509
23.10000,-3.85026,-4.15012
23.15000,-3.85879,-4.15438
23.20000,-3.86719,-4.15897
23.25000,-3.87532,-4.16375
23.30000,-3.88359,-4.16931
23.35000,-3.89186,-4.17188
23.40000,-3.90039,-4.17713
23.45000,-3.90879,-4.18215
23.50000,-3.91679,-4.18672
23.55000,-3.92519,-4.18990
23.60000,-3.93372,-4.19562
23.65000,-3.94199,-4.20060
23.70000,-3.95026,-4.20355
23.75000,-3.95866,-4.20865
23.80000,-3.96706,-4.21398
23.85000,-3.97519,-4.21671
23.90000,-3.98372,-4.22168
23.95000,-3.99226,-4.22676
24.00000,-4.00026,-4.23128
24.05000,-4.00852,-4.23463
24.10000,-4.01692,-4.23944
24.15000,-4.02506,-4.24233
24.20000,-4.03332,-4.24759
24.25000,-4.04186,-4.25276
24.30000,-4.05026,-4.25652
24.35000,-4.05866,-4.26034
24.40000,-4.06692,-4.26643
24.45000,-4.07532,-4.26994
24.50000,-4.08372,-4.27285
24.55000,-4.09199,-4.27794
24.60000,-4.10026,-4.28256
24.65000,-4.10879,-4.28531
24.70000,-4.11706,-4.29192
24.75000,-4.12519,-4.29524
24.80000,-4.13359,-4.29946
24.85000,-4.14212,-4.30306
24.90000,-4.15012,-4.31013
24.95000,-4.15852,-4.31080
25.00000,-4.16692,-4.31858
25.05000,-4.17506,-4.32041
25.10000,-4.18332,-4.32729
25.15000,-4.19199,-4.32815
25.20000,-4.20026,-4.33795
25.25000,-4.20852,-4.33600
25.30000,-4.21692,-4.34557
25.35000,-4.22532,-4.34804
25.40000,-4.23372,-4.35360
25.45000,-4.24199,-4.35423
25.50000,-4.25039,-4.36141
25.55000,-4.25879,-4.36853
25.60000,-4.26706,-4.36667
25.65000,-4.27519,-4.37731
25.70000,-4.28359,-4.37749
25.75000,-4.29199,-4.38484
25.80000,-4.30012,-4.38652
25.85000,-4.30852,-4.39257
25.90000,-4.31719,-4.39538
25.95000,-4.32519,-4.40056
26.00000,-4.33346,-4.40528
26.05000,-4.34212,-4.40714
26.10000,-4.35039,-4.41440
26.15000,-4.35866,-4.41671
26.20000,-4.36719,-4.42080
26.25000,-4.37546,-4.42645
26.30000,-4.38372,-4.42735
26.35000,-4.39199,-4.43609
26.40000,-4.40039,-4.43442
26.45000,-4.40879,-4.44433
26.50000,-4.41706,-4.44423
26.55000,-4.42532,-4.45268
26.60000,-4.43372,-4.45221
26.65000,-4.44212,-4.46074
26.70000,-4.45012,-4.45984
26.75000,-4.45852,-4.46854
26.80000,-4.46692,-4.46744
26.85000,-4.47519,-4.47685
26.90000,-4.48359,-4.47492
26.95000,-4.49212,-4.48540
27.00000,-4.50039,-4.48243
27.05000,-4.50852,-4.49253
27.10000,-4.51692,-4.49286
27.15000,-4.52546,-4.49777
27.20000,-4.53359,-4.50109
27.25000,-4.54186,-4.50551
27.30000,-4.55026,-4.50996
27.35000,-4.55852,-4.50950
27.40000,-4.56679,-4.51908
27.45000,-4.57519,-4.51782
27.50000,-4.58346,-4.52487
27.55000,-4.59172,-4.52460
27.60000,-4.60012,-4.53319
27.65000,-4.60866,-4.53382
27.70000,-4.61706,-4.53837
27.75000,-4.62532,-4.54343
27.80000,-4.63346,-4.54642
27.85000,-4.64212,-4.54748
27.90000,-4.65039,-4.55666
27.95000,-4.65852,-4.55275
28.00000,-4.66706,-4.56375
28.05000,-4.67546,-4.56238
28.10000,-4.68332,-4.56662
28.15000,-4.69172,-4.57128
28.20000,-4.70026,-4.57087
28.25000,-4.70839,-4.58071
28.30000,-4.71666,-4.57615
28.35000,-4.72532,-4.58660
28.40000,-4.73359,-4.58587
28.45000,-4.74185,-4.59338
28.50000,-4.75039,-4.59335
28.55000,-4.75879,-4.59976
28.60000,-4.76706,-4.60173
28.65000,-4.77546,-4.60632
28.70000,-4.78372,-4.60885
28.75000,-4.79212,-4.60962
28.80000,-4.80052,-4.62519
28.85000,-4.80852,-4.60730
28.90000,-4.81706,-4.62870
28.95000,-4.82532,-4.62136
29.00000,-4.83332,-4.63268
29.05000,-4.84185,-4.62313
29.10000,-4.85039,-4.64156
29.15000,-4.85839,-4.63006
29.20000,-4.86679,-4.64471
29.25000,-4.87559,-4.63850
29.30000,-4.88372,-4.65199
29.35000,-4.89199,-4.64384
29.40000,-4.90052,-4.65423
29.45000,-4.90892,-4.65529
29.50000,-4.91705,-4.66068
29.55000,-4.92545,-4.65819
29.60000,-4.93372,-4.66513
29.65000,-4.94199,-4.66847
29.70000,-4.95025,-4.66520
29.75000,-4.95852,-4.67594
29.80000,-4.96692,-4.67101
29.85000,-4.97519,-4.68058
29.90000,-4.98332,-4.67442
29.95000,-4.99172,-4.68826
30.00000,-5.00025,-4.67913
30.05000,-5.00852,-4.69301
30.10000,-5.01679,-4.68997
30.15000,-5.02532,-4.69284
30.20000,-5.03372,-4.69584
30.25000,-5.04185,-4.70413
30.30000,-5.05025,-4.69752
30.35000,-5.05879,-4.70643
30.40000,-5.06692,-4.70782
30.45000,-5.07519,-4.71167
30.50000,-5.08372,-4.70915
30.55000,-5.09199,-4.72048
30.60000,-5.10025,-4.71284
30.65000,-5.10865,-4.72086
30.70000,-5.11679,-4.72817
30.75000,-5.12505,-4.71941
30.80000,-5.13345,-4.72719
30.85000,-5.14185,-4.73557
30.90000,-5.15039,-4.73069
30.95000,-5.15865,-4.73691
31.00000,-5.16692,-4.73858
31.05000,-5.17545,-4.74552
31.10000,-5.18372,-4.73832
31.15000,-5.19185,-4.75345
31.20000,-5.20039,-4.74400
31.25000,-5.20879,-4.75765
31.30000,-5.21679,-4.74676
31.35000,-5.22519,-4.76533
31.40000,-5.23372,-4.75467
31.45000,-5.24172,-4.76394
31.50000,-5.24999,-4.76638
31.55000,-5.25865,-4.76490
31.60000,-5.26692,-4.76966
31.65000,-5.27519,-4.77383
31.70000,-5.28372,-4.77563
31.75000,-5.29212,-4.77437
31.80000,-5.30039,-4.78431
31.85000,-5.30879,-4.77604
31.90000,-5.31705,-4.79334
31.95000,-5.32559,-4.77953
32.00000,-5.33372,-4.79711
32.05000,-5.34185,-4.78681
32.10000,-5.35025,-4.80028
32.15000,-5.35879,-4.78907
32.20000,-5.36679,-4.80753
32.25000,-5.37519,-4.79468
32.30000,-5.38372,-4.80920
32.35000,-5.39185,-4.80320
32.40000,-5.40025,-4.81053
32.45000,-5.40879,-4.80588
32.50000,-5.41705,-4.81769
32.55000,-5.42532,-4.81314
32.60000,-5.43385,-4.82212
32.65000,-5.44212,-4.81714
32.70000,-5.45039,-4.82669
32.75000,-5.45879,-4.82237
32.80000,-5.46705,-4.82960
32.85000,-5.47532,-4.82511
32.90000,-5.48359,-4.83523
32.95000,-5.49185,-4.82900
33.00000,-5.50025,-4.83801
33.05000,-5.50852,-4.83564
33.10000,-5.51665,-4.83998
33.15000,-5.52519,-4.84120
33.20000,-5.53372,-4.84280
33.25000,-5.54199,-4.85012
33.30000,-5.55025,-4.84605
33.35000,-5.55892,-4.85305
33.40000,-5.56705,-4.85277
33.45000,-5.57519,-4.85823
33.50000,-5.58372,-4.85480
33.55000,-5.59225,-4.86271
33.60000,-5.60025,-4.86171
33.65000,-5.60852,-4.86849
33.70000,-5.61705,-4.86301
33.75000,-5.62519,-4.87247
33.80000,-5.63345,-4.86784
33.85000,-5.64199,-4.87912
33.90000,-5.65012,-4.87041
33.95000,-5.65852,-4.88191
34.00000,-5.66679,-4.87752
34.05000,-5.67532,-4.88391
34.10000,-5.68372,-4.88375
34.15000,-5.69199,-4.88873
34.20000,-5.70025,-4.88833
34.25000,-5.70879,-4.89355
34.30000,-5.71705,-4.89300
34.35000,-5.72519,-4.89866
34.40000,-5.73372,-4.89873
34.45000,-5.74212,-4.90253
34.50000,-5.75012,-4.90525
34.55000,-5.75852,-4.90730
34.60000,-5.76705,-4.90943
34.65000,-5.77519,-4.91617
34.70000,-5.78332,-4.90944
34.75000,-5.79199,-4.92408
34.80000,-5.79999,-4.91774
34.85000,-5.80839,-4.92302
34.90000,-5.81692,-4.92842
34.95000,-5.82532,-4.92878
35.00000,-5.83372,-4.93218
35.05000,-5.84212,-4.93496
35.10000,-5.85039,-4.93894
35.15000,-5.85879,-4.93695
35.20000,-5.86705,-4.94485
35.25000,-5.87519,-4.94195
35.30000,-5.88359,-4.94867
35.35000,-5.89199,-4.94958
35.40000,-5.90012,-4.95150
35.45000,-5.90852,-4.95470
35.50000,-5.91705,-4.95870
35.55000,-5.92505,-4.95821
35.60000,-5.93359,-4.96500
35.65000,-5.94212,-4.96384
35.70000,-5.95025,-4.96977
35.75000,-5.95839,-4.97037
35.80000,-5.96705,-4.97304
35.85000,-5.97545,-4.97558
35.90000,-5.98359,-4.98123
35.95000,-5.99212,-4.98057
36.00000,-6.00039,-4.98476
36.05000,-6.00852,-4.98737
36.10000,-6.01679,-4.98986
36.15000,-6.02519,-4.99015
36.20000,-6.03372,-4.99686
36.25000,-6.04199,-4.99702
36.30000,-6.05025,-5.00109
36.35000,-6.05865,-5.00265
36.40000,-6.06705,-5.00697
36.45000,-6.07532,-5.00882
36.50000,-6.08359,-5.01186
36.55000,-6.09212,-5.01286
36.60000,-6.10038,-5.02033
36.65000,-6.10852,-5.01640
36.70000,-6.11705,-5.02557
36.75000,-6.12559,-5.02172
36.80000,-6.13359,-5.03257
36.85000,-6.14185,-5.02866
36.90000,-6.15038,-5.03261
36.95000,-6.15838,-5.03842
37.00000,-6.16679,-5.03732
37.05000,-6.17519,-5.04185
37.10000,-6.18345,-5.04468
37.15000,-6.19185,-5.04784
37.20000,-6.20012,-5.04937
37.25000,-6.20852,-5.05519
37.30000,-6.21705,-5.05496
37.35000,-6.22545,-5.06345
37.40000,-6.23358,-5.06095
37.45000,-6.24225,-5.06901
37.50000,-6.25038,-5.06787
37.55000,-6.25852,-5.07519
37.60000,-6.26705,-5.07276
37.65000,-6.27545,-5.08146
37.70000,-6.28345,-5.07859
37.75000,-6.29185,-5.08751
37.80000,-6.30052,-5.08465
37.85000,-6.30852,-5.09259
37.90000,-6.31665,-5.09239
37.95000,-6.32532,-5.09823
38.00000,-6.33358,-5.09840
38.05000,-6.34172,-5.10374
38.10000,-6.35025,-5.10593
38.15000,-6.35865,-5.10979
38.20000,-6.36705,-5.11214
38.25000,-6.37545,-5.11596
38.30000,-6.38372,-5.11867
38.35000,-6.39212,-5.12258
38.40000,-6.40038,-5.12401
38.45000,-6.40852,-5.12928
38.50000,-6.41705,-5.13016
38.55000,-6.42532,-5.13523
38.60000,-6.43345,-5.13674
38.65000,-6.44185,-5.14015
38.70000,-6.45038,-5.14257
38.75000,-6.45852,-5.14583
38.80000,-6.46692,-5.14838
38.85000,-6.47545,-5.15160
38.90000,-6.48358,-5.15576
38.95000,-6.49185,-5.15670
39.00000,-6.50038,-5.16142
39.05000,-6.50878,-5.16421
39.10000,-6.51705,-5.16726
39.15000,-6.52545,-5.17003
39.20000,-6.53385,-5.17385
39.25000,-6.54198,-5.17606
39.30000,-6.55025,-5.17984
39.35000,-6.55852,-5.18135
39.40000,-6.56705,-5.18666
39.45000,-6.57532,-5.18779
39.50000,-6.58345,-5.19320
39.55000,-6.59185,-5.19365
39.60000,-6.60025,-5.19935
39.65000,-6.60852,-5.20065
39.70000,-6.61692,-5.20532
39.75000,-6.62545,-5.20679
39.80000,-6.63372,-5.21252
39.85000,-6.64198,-5.21394
39.90000,-6.65052,-5.21811
39.95000,-6.65878,-5.22082
40.00000,-6.66692,-5.22428
40.05000,-6.67518,-5.22618
40.10000,-6.68358,-5.23042
40.15000,-6.69172,-5.23217
40.20000,-6.69998,-5.23677
40.25000,-6.70852,-5.23933
40.30000,-6.71678,-5.24348
40.35000,-6.72518,-5.24533
40.40000,-6.73345,-5.24954
40.45000,-6.74185,-5.25472
40.50000,-6.75025,-5.25327
40.55000,-6.75865,-5.26230
40.60000,-6.76692,-5.26145
40.65000,-6.77545,-5.26859
40.70000,-6.78372,-5.26920
40.75000,-6.79198,-5.27556
40.80000,-6.80038,-5.27615
40.85000,-6.80878,-5.28189
40.90000,-6.81678,-5.28303
40.95000,-6.82518,-5.28837
41.00000,-6.83372,-5.28950
41.05000,-6.84185,-5.29687
41.10000,-6.84998,-5.29514
41.15000,-6.85865,-5.30405
41.20000,-6.86692,-5.30298
41.25000,-6.87518,-5.30942
41.30000,-6.88372,-5.31533
41.35000,-6.89212,-5.31293
41.40000,-6.90038,-5.32321
41.45000,-6.90878,-5.32379
41.50000,-6.91705,-5.32688
41.55000,-6.92545,-5.33027
41.60000,-6.93372,-5.33547
41.65000,-6.94185,-5.33593
41.70000,-6.95038,-5.34040
41.75000,-6.95865,-5.34334
41.80000,-6.96678,-5.34791
41.85000,-6.97518,-5.34854
41.90000,-6.98358,-5.35408
41.95000,-6.99172,-5.35615
42.00000,-7.00012,-5.36042
42.05000,-7.00878,-5.36104
42.10000,-7.01705,-5.36771
42.15000,-7.02518,-5.36941
42.20000,-7.03372,-5.37072
42.25000,-7.04198,-5.37645
42.30000,-7.05025,-5.37933
42.35000,-7.05865,-5.38038
42.40000,-7.06718,-5.38646
42.45000,-7.07532,-5.38738
42.50000,-7.08372,-5.39264
42.55000,-7.09198,-5.39226
42.60000,-7.10038,-5.39887
42.65000,-7.10865,-5.39873
42.70000,-7.11678,-5.40582
42.75000,-7.12518,-5.40295
42.80000,-7.13372,-5.41251
42.85000,-7.14185,-5.41131
42.90000,-7.15025,-5.41632
42.95000,-7.15878,-5.41720
43.00000,-7.16705,-5.42472
43.05000,-7.17518,-5.42143
43.10000,-7.18372,-5.43034
43.15000,-7.19212,-5.42794
43.20000,-7.20025,-5.43611
43.25000,-7.20838,-5.43165
43.30000,-7.21705,-5.44374
43.35000,-7.22505,-5.43922
43.40000,-7.23332,-5.44406
43.45000,-7.24185,-5.44927
43.50000,-7.25012,-5.45039
43.55000,-7.25838,-5.45200
43.60000,-7.26678,-5.45862
43.65000,-7.27518,-5.45772
43.70000,-7.28358,-5.46442
43.75000,-7.29198,-5.46383
43.80000,-7.30025,-5.47259
43.85000,-7.30878,-5.46913
43.90000,-7.31705,-5.47815
43.95000,-7.32518,-5.47593
44.00000,-7.33358,-5.48393
44.05000,-7.34198,-5.47953
44.10000,-7.34998,-5.49040
44.15000,-7.35838,-5.48630
44.20000,-7.36705,-5.49516
44.25000,-7.37505,-5.49298
44.30000,-7.38332,-5.50153
44.35000,-7.39198,-5.49896
44.40000,-7.40025,-5.50728
44.45000,-7.40852,-5.50679
44.50000,-7.41705,-5.51259
44.55000,-7.42545,-5.51312
44.60000,-7.43372,-5.51849
44.65000,-7.44212,-5.51874
44.70000,-7.45038,-5.52415
44.75000,-7.45878,-5.52433
44.80000,-7.46705,-5.52841
44.85000,-7.47505,-5.53201
44.90000,-7.48358,-5.53237
44.95000,-7.49198,-5.53739
45.00000,-7.50011,-5.53927
45.05000,-7.50851,-5.54265
45.10000,-7.51705,-5.54394
45.15000,-7.52505,-5.54894
45.20000,-7.53345,-5.54911
45.25000,-7.54211,-5.55426
45.30000,-7.55025,-5.55556
45.35000,-7.55851,-5.55977
45.40000,-7.56705,-5.56168
45.45000,-7.57545,-5.56560
45.50000,-7.58372,-5.56681
45.55000,-7.59211,-5.56964
45.60000,-7.60051,-5.57201
45.65000,-7.60865,-5.57420
45.70000,-7.61705,-5.57786
45.75000,-7.62531,-5.57766
45.80000,-7.63371,-5.58297
45.85000,-7.64198,-5.58380
45.90000,-7.65011,-5.58670
45.95000,-7.65851,-5.58792
46.00000,-7.66691,-5.59201
46.05000,-7.67518,-5.59539
46.10000,-7.68358,-5.59552
46.15000,-7.69225,-5.60051
46.20000,-7.70051,-5.60378
46.25000,-7.70865,-5.60440
46.30000,-7.71705,-5.60793
46.35000,-7.72558,-5.61061
46.40000,-7.73358,-5.61298
46.45000,-7.74185,-5.61503
46.50000,-7.75038,-5.61789
46.55000,-7.75851,-5.62022
46.60000,-7.76691,-5.62106
46.65000,-7.77531,-5.62887
46.70000,-7.78358,-5.62442
46.75000,-7.79185,-5.63278
46.80000,-7.80025,-5.63235
46.85000,-7.80865,-5.63542
46.90000,-7.81705,-5.63901
46.95000,-7.82531,-5.64134
47.00000,-7.83358,-5.64382
47.05000,-7.84211,-5.64684
47.10000,-7.85038,-5.64968
47.15000,-7.85851,-5.65232
47.20000,-7.86705,-5.65384
47.25000,-7.87545,-5.65902
47.30000,-7.88358,-5.65722
47.35000,-7.89185,-5.66421
47.40000,-7.90038,-5.66500
47.45000,-7.90838,-5.66630
47.50000,-7.91665,-5.67031
47.55000,-7.92531,-5.67248
47.60000,-7.93358,-5.67441
47.65000,-7.94171,-5.67727
47.70000,-7.95025,-5.67918
47.75000,-7.95865,-5.68329
47.80000,-7.96678,-5.68296
47.85000,-7.97518,-5.68943
47.90000,-7.98345,-5.68722
47.95000,-7.99185,-5.69364
48.00000,-8.00011,-5.69360
48.05000,-8.00825,-5.69793
48.10000,-8.01691,-5.69804
48.15000,-8.02531,-5.70396
48.20000,-8.03331,-5.70328
48.25000,-8.04185,-5.70631
48.30000,-8.05025,-5.71016
48.35000,-8.05838,-5.71145
48.40000,-8.06691,-5.71188
48.45000,-8.07558,-5.71885
48.50000,-8.08371,-5.71852
48.55000,-8.09185,-5.72066
48.60000,-8.10038,-5.72162
48.65000,-8.10865,-5.72561
48.70000,-8.11691,-5.72634
48.75000,-8.12545,-5.72780
48.80000,-8.13385,-5.73178
48.85000,-8.14198,-5.73087
48.90000,-8.15025,-5.73451
48.95000,-8.15865,-5.73470
49.00000,-8.16718,-5.73784
49.05000,-8.17545,-5.73982
49.10000,-8.18358,-5.73977
49.15000,-8.19198,-5.74577
49.20000,-8.20038,-5.73988
49.25000,-8.20865,-5.74885
49.30000,-8.21691,-5.74741
49.35000,-8.22558,-5.74972
49.40000,-8.23371,-5.75121
49.45000,-8.24198,-5.75343
49.50000,-8.25038,-5.75427
49.55000,-8.25878,-5.75640
49.60000,-8.26691,-5.75713
49.65000,-8.27518,-5.75951
49.70000,-8.28371,-5.75894
49.75000,-8.29185,-5.76256
49.80000,-8.30011,-5.76124
49.85000,-8.30851,-5.76484
49.90000,-8.31678,-5.76518
49.95000,-8.32518,-5.76587
50.00000,-8.33358,-5.76976
50.05000,-8.34198,-5.76833
50.10000,-8.35038,-5.77195
50.15000,-8.35865,-5.77167
50.20000,-8.36691,-5.77291
50.25000,-8.37545,-5.77576
50.30000,-8.38371,-5.77641
50.35000,-8.39185,-5.77849
50.40000,-8.40038,-5.77916
50.45000,-8.40878,-5.78216
50.50000,-8.41678,-5.78321
50.55000,-8.42505,-5.78346
50.60000,-8.43371,-5.78624
50.65000,-8.44171,-5.78834
50.70000,-8.45011,-5.78996
50.75000,-8.45865,-5.79093
50.80000,-8.46691,-5.79302
50.85000,-8.47518,-5.79877
50.90000,-8.48371,-5.79351
50.95000,-8.49211,-5.80114
51.00000,-8.50038,-5.80045
51.05000,-8.50878,-5.80376
51.10000,-8.51691,-5.80400
51.15000,-8.52545,-5.80593
51.20000,-8.53371,-5.80840
51.25000,-8.54185,-5.81049
51.30000,-8.55038,-5.80990
51.35000,-8.55878,-5.81400
51.40000,-8.56678,-5.81481
51.45000,-8.57518,-5.81713
51.50000,-8.58371,-5.81630
51.55000,-8.59171,-5.82102
51.60000,-8.60011,-5.82213
51.65000,-8.60878,-5.82273
51.70000,-8.61705,-5.82723
51.75000,-8.62518,-5.82642
51.80000,-8.63371,-5.83170
51.85000,-8.64211,-5.83001
51.90000,-8.65025,-5.83672
51.95000,-8.65865,-5.83354
52.00000,-8.66705,-5.84002
52.05000,-8.67531,-5.83920
52.10000,-8.68371,-5.84584
52.15000,-8.69198,-5.83893
52.20000,-8.70038,-5.85002
52.25000,-8.70865,-5.84855
52.30000,-8.71678,-5.84818
52.35000,-8.72518,-5.85085
52.40000,-8.73371,-5.85695
52.45000,-8.74185,-5.85346
52.50000,-8.75025,-5.86025
52.55000,-8.75878,-5.85861
52.60000,-8.76705,-5.86560
52.65000,-8.77518,-5.86156
52.70000,-8.78371,-5.86939
52.75000,-8.79225,-5.86843
52.80000,-8.80024,-5.87116
52.85000,-8.80851,-5.87334
52.90000,-8.81705,-5.87437
52.95000,-8.82518,-5.87616
53.00000,-8.83345,-5.87873
53.05000,-8.84185,-5.87971
53.10000,-8.85011,-5.88259
53.15000,-8.85838,-5.88423
53.20000,-8.86691,-5.88662
53.25000,-8.87531,-5.89161
53.30000,-8.88371,-5.89087
53.35000,-8.89198,-5.89402
53.40000,-8.90024,-5.89798
53.45000,-8.90878,-5.89877
53.50000,-8.91704,-5.90206
53.55000,-8.92518,-5.90316
53.60000,-8.93371,-5.90645
53.65000,-8.94198,-5.90891
53.70000,-8.95011,-5.90773
53.75000,-8.95838,-5.91874
53.80000,-8.96691,-5.90902
53.85000,-8.97504,-5.92253
53.90000,-8.98331,-5.91640
53.95000,-8.99184,-5.92440
54.00000,-9.00024,-5.92282
54.05000,-9.00851,-5.92919
54.10000,-9.01704,-5.92937
54.15000,-9.02545,-5.93320
54.20000,-9.03371,-5.93365
54.25000,-9.04198,-5.93971
54.30000,-9.05024,-5.93632
54.35000,-9.05878,-5.94465
54.40000,-9.06704,-5.94253
54.45000,-9.07504,-5.94876
54.50000,-9.08371,-5.94684
54.55000,-9.09198,-5.95166
54.60000,-9.10011,-5.95426
54.65000,-9.10864,-5.95414
54.70000,-9.11704,-5.95987
54.75000,-9.12518,-5.96123
54.80000,-9.13358,-5.96241
54.85000,-9.14224,-5.96702
54.90000,-9.15038,-5.96706
54.95000,-9.15864,-5.97284
55.00000,-9.16718,-5.96925
55.05000,-9.17544,-5.97804
55.10000,-9.18358,-5.97507
55.15000,-9.19211,-5.98076
55.20000,-9.20051,-5.97959
55.25000,-9.20864,-5.98574
55.30000,-9.21704,-5.98308
55.35000,-9.22531,-5.98904
55.40000,-9.23371,-5.98790
55.45000,-9.24198,-5.99374
55.50000,-9.25011,-5.99122
55.55000,-9.25864,-5.99843
55.60000,-9.26704,-5.99416
55.65000,-9.27518,-6.00440
55.70000,-9.28344,-5.99897
55.75000,-9.29211,-6.00682
55.80000,-9.30038,-6.00578
55.85000,-9.30851,-6.01063
55.90000,-9.31691,-6.00860
55.95000,-9.32531,-6.01410
56.00000,-9.33344,-6.01349
56.05000,-9.34171,-6.01748
56.10000,-9.35011,-6.01830
56.15000,-9.35838,-6.01806
56.20000,-9.36678,-6.02836
56.25000,-9.37504,-6.02117
56.30000,-9.38344,-6.03022
56.35000,-9.39171,-6.02724
56.40000,-9.40011,-6.03562
56.45000,-9.40851,-6.03037
56.50000,-9.41704,-6.03988
56.55000,-9.42531,-6.03831
56.60000,-9.43358,-6.04430
56.65000,-9.44224,-6.03962
56.70000,-9.45051,-6.05188
56.75000,-9.45851,-6.04435
56.80000,-9.46704,-6.05300
56.85000,-9.47558,-6.04904
56.90000,-9.48358,-6.05922
56.95000,-9.49198,-6.05273
57.00000,-9.50051,-6.05993
57.05000,-9.50851,-6.06019
57.10000,-9.51678,-6.06294
57.15000,-9.52531,-6.06419
57.20000,-9.53371,-6.06469
57.25000,-9.54198,-6.07266
57.30000,-9.55038,-6.07084
57.35000,-9.55864,-6.07147
57.40000,-9.56704,-6.07905
57.45000,-9.57544,-6.07808
57.50000,-9.58371,-6.07965
57.55000,-9.59224,-6.08435
57.60000,-9.60051,-6.08617
57.65000,-9.60851,-6.08783
57.70000,-9.61704,-6.08790
57.75000,-9.62544,-6.09499
57.80000,-9.63344,-6.09228
57.85000,-9.64184,-6.09600
57.90000,-9.65038,-6.09997
57.95000,-9.65838,-6.09953
58.00000,-9.66678,-6.10422
58.05000,-9.67544,-6.10655
58.10000,-9.68371,-6.10871
58.15000,-9.69184,-6.11217
58.20000,-9.70038,-6.11153
58.25000,-9.70878,-6.12399
58.30000,-9.71704,-6.11111
58.35000,-9.72544,-6.12747
58.40000,-9.73371,-6.12343
58.45000,-9.74211,-6.12793
58.50000,-9.75038,-6.12671
58.55000,-9.75864,-6.13453
58.60000,-9.76704,-6.13095
58.65000,-9.77531,-6.13821
58.70000,-9.78344,-6.13578
58.75000,-9.79184,-6.14352
58.80000,-9.80038,-6.13953
58.85000,-9.80864,-6.14896
58.90000,-9.81691,-6.14522
58.95000,-9.82544,-6.15095
59.00000,-9.83371,-6.15138
59.05000,-9.84184,-6.15278
59.10000,-9.85024,-6.15856
59.15000,-9.85878,-6.15579
59.20000,-9.86691,-6.15979
59.25000,-9.87531,-6.16383
59.30000,-9.88371,-6.16195
59.35000,-9.89198,-6.16589
59.40000,-9.90011,-6.16859
59.45000,-9.90851,-6.16875
59.50000,-9.91678,-6.17417
59.55000,-9.92504,-6.17219
59.60000,-9.93358,-6.18079
59.65000,-9.94184,-6.17918
59.70000,-9.95038,-6.18182
59.75000,-9.95864,-6.18768
59.80000,-9.96678,-6.18805
59.85000,-9.97544,-6.18651
59.90000,-9.98371,-6.19548
59.95000,-9.99171,-6.19152
60.00000,-10.00024,-6.19700
60.05000,-10.00864,-6.19607
60.10000,-10.01664,-6.20463
60.15000,-10.02518,-6.19812
60.20000,-10.03384,-6.20896
60.25000,-10.04184,-6.20628
60.30000,-10.05011,-6.21421
60.35000,-10.05864,-6.20365
60.40000,-10.06691,-6.22426
60.45000,-10.07518,-6.21047
60.50000,-10.08371,-6.22713
60.55000,-10.09211,-6.21582
60.60000,-10.10051,-6.23442
60.65000,-10.10878,-6.22152
60.70000,-10.11704,-6.23499
60.75000,-10.12544,-6.22771
60.80000,-10.13371,-6.23862
60.85000,-10.14171,-6.23164
60.90000,-10.15038,-6.24143
60.95000,-10.15864,-6.23846
61.00000,-10.16678,-6.24434
61.05000,-10.17518,-6.24169
61.10000,-10.18371,-6.24795
61.15000,-10.19171,-6.24796
61.20000,-10.20011,-6.24786
61.25000,-10.20878,-6.25459
61.30000,-10.21704,-6.25424
61.35000,-10.22517,-6.25753
61.40000,-10.23371,-6.25739
61.45000,-10.24211,-6.26443
61.50000,-10.25024,-6.26125
61.55000,-10.25864,-6.26869
61.60000,-10.26717,-6.26607
61.65000,-10.27531,-6.27490
61.70000,-10.28358,-6.26597
61.75000,-10.29184,-6.28130
61.80000,-10.30024,-6.26959
61.85000,-10.30864,-6.28255
61.90000,-10.31678,-6.27686
61.95000,-10.32517,-6.28387
62.00000,-10.33371,-6.28179
62.05000,-10.34184,-6.28995
62.10000,-10.35011,-6.28553
62.15000,-10.35864,-6.29374
62.20000,-10.36691,-6.28978
62.25000,-10.37517,-6.29975
62.30000,-10.38371,-6.29129
62.35000,-10.39224,-6.30637
62.40000,-10.40024,-6.29804
62.45000,-10.40864,-6.30728
62.50000,-10.41717,-6.30457
62.55000,-10.42531,-6.31109
62.60000,-10.43357,-6.30929
62.65000,-10.44197,-6.31536
62.70000,-10.45024,-6.31477
62.75000,-10.45851,-6.31916
62.80000,-10.46691,-6.31997
62.85000,-10.47517,-6.32317
62.90000,-10.48371,-6.32730
62.95000,-10.49197,-6.32757
63.00000,-10.50024,-6.33174
63.05000,-10.50877,-6.33259
63.10000,-10.51704,-6.33620
63.15000,-10.52504,-6.33800
63.20000,-10.53371,-6.33914
63.25000,-10.54211,-6.34268
63.30000,-10.54997,-6.34451
63.35000,-10.55837,-6.34481
63.40000,-10.56691,-6.34928
63.45000,-10.57504,-6.35051
63.50000,-10.58317,-6.35250
63.55000,-10.59197,-6.35385
63.60000,-10.60024,-6.35772
63.65000,-10.60851,-6.35871
63.70000,-10.61691,-6.36091
63.75000,-10.62531,-6.36344
63.80000,-10.63357,-6.36595
63.85000,-10.64184,-6.36806
63.90000,-10.65011,-6.37135
63.95000,-10.65864,-6.37240
64.00000,-10.66704,-6.37714
64.05000,-10.67504,-6.37822
64.10001,-10.68371,-6.38035
64.15000,-10.69211,-6.38409
64.20000,-10.70011,-6.38634
64.25000,-10.70851,-6.38726
64.30000,-10.71691,-6.39024
64.35001,-10.72504,-6.39251
64.40000,-10.73344,-6.39519
64.45000,-10.74211,-6.39840
64.50000,-10.75051,-6.40285
64.55000,-10.75864,-6.40417
64.60001,-10.76717,-6.40636
64.65000,-10.77557,-6.41007
64.70000,-10.78371,-6.41143
64.75000,-10.79211,-6.41404
64.80000,-10.80051,-6.41634
64.85001,-10.80877,-6.41911
64.90000,-10.81704,-6.42146
64.95000,-10.82517,-6.42390
65.00000,-10.83371,-6.42634
65.05000,-10.84197,-6.42865
65.10001,-10.85011,-6.43205
65.15000,-10.85837,-6.43223
65.20000,-10.86691,-6.43546
65.25000,-10.87517,-6.43943
65.30000,-10.88357,-6.44238
65.35001,-10.89211,-6.44457
65.40000,-10.90051,-6.44982
65.45000,-10.90864,-6.45035
65.50000,-10.91717,-6.45369
65.55000,-10.92557,-6.45841
65.60001,-10.93357,-6.45995
65.65000,-10.94184,-6.46226
65.70001,-10.95037,-6.46455
65.75000,-10.95851,-6.46724
65.80000,-10.96677,-6.46967
65.85001,-10.97517,-6.47317
65.90000,-10.98344,-6.47475
65.95001,-10.99184,-6.47980
66.00000,-11.00024,-6.48313
66.05000,-11.00864,-6.48682
66.10001,-11.01704,-6.48813
66.15000,-11.02517,-6.49323
66.20001,-11.03357,-6.49414
66.25000,-11.04224,-6.49939
66.30000,-11.05051,-6.50184
66.35001,-11.05864,-6.50371
66.40000,-11.06704,-6.50683
66.45001,-11.07557,-6.50996
66.50000,-11.08344,-6.51131
66.55000,-11.09184,-6.51321
66.60001,-11.10024,-6.51649
66.65000,-11.10837,-6.51919
66.70001,-11.11677,-6.52118
66.75000,-11.12531,-6.52556
66.80000,-11.13357,-6.52758
66.85001,-11.14197,-6.53081
66.90000,-11.15037,-6.53359
66.95001,-11.15864,-6.53620
67.00000,-11.16704,-6.53902
67.05000,-11.17544,-6.54042
67.10001,-11.18371,-6.54460
67.15000,-11.19211,-6.54532
67.20001,-11.20037,-6.54957
67.25000,-11.20851,-6.55096
67.30000,-11.21704,-6.55337
67.35001,-11.22544,-6.55646
67.40000,-11.23344,-6.55849
67.45001,-11.24184,-6.56059
67.50000,-11.25024,-6.56271
67.55000,-11.25837,-6.56557
67.60001,-11.26677,-6.56688
67.65000,-11.27544,-6.56968
67.70001,-11.28371,-6.57456
67.75000,-11.29197,-6.57388
67.80000,-11.30037,-6.57920
67.85001,-11.30877,-6.57916
67.90000,-11.31691,-6.58139
67.95001,-11.32531,-6.58069
68.00000,-11.33384,-6.58633
68.05000,-11.34197,-6.58548
68.10001,-11.35037,-6.58904
68.15000,-11.35877,-6.59040
68.20001,-11.36731,-6.59376
68.25000,-11.37544,-6.59680
68.30000,-11.38344,-6.59471
68.35001,-11.39197,-6.59957
68.40000,-11.40037,-6.59857
68.45001,-11.40851,-6.60346
68.50000,-11.41691,-6.60330
68.55000,-11.42544,-6.60602
68.60001,-11.43371,-6.60803
68.65000,-11.44184,-6.60939
68.70001,-11.45037,-6.61075
68.75000,-11.45877,-6.61369
68.80000,-11.46691,-6.61402
68.85001,-11.47517,-6.61641
68.90000,-11.48371,-6.61657
68.95001,-11.49171,-6.62079
69.00000,-11.49997,-6.61894
69.05000,-11.50850,-6.62455
69.10001,-11.51691,-6.62338
69.15000,-11.52517,-6.62896
69.20001,-11.53357,-6.62895
69.25000,-11.54197,-6.62991
69.30000,-11.55037,-6.63328
69.35001,-11.55864,-6.63317
69.40000,-11.56677,-6.63630
69.45001,-11.57530,-6.63569
69.50000,-11.58371,-6.64135
69.55000,-11.59184,-6.63972
69.60001,-11.60037,-6.64440
69.65000,-11.60877,-6.64429
69.70001,-11.61677,-6.64572
69.75000,-11.62517,-6.64467
69.80000,-11.63371,-6.64882
69.85001,-11.64171,-6.64756
69.90000,-11.64997,-6.65101
69.95001,-11.65864,-6.64949
70.00000,-11.66691,-6.65513
70.05000,-11.67517,-6.65325
70.10001,-11.68371,-6.65843
70.15000,-11.69197,-6.65930
70.20001,-11.70037,-6.65986
70.25000,-11.70877,-6.66212
70.30000,-11.71691,-6.66104
70.35001,-11.72544,-6.66414
70.40000,-11.73384,-6.66441
70.45001,-11.74184,-6.66671
70.50000,-11.75024,-6.66428
70.55000,-11.75864,-6.66779
70.60001,-11.76664,-6.66821
70.65000,-11.77517,-6.66837
70.70001,-11.78371,-6.67168
70.75000,-11.79170,-6.67190
70.80000,-11.80024,-6.67277
70.85001,-11.80877,-6.67440
70.90000,-11.81704,-6.67651
70.95001,-11.82530,-6.67698
71.00000,-11.83384,-6.67854
71.05000,-11.84210,-6.67939
71.10001,-11.85037,-6.68045
71.15000,-11.85877,-6.68181
71.20001,-11.86717,-6.68549
71.25000,-11.87544,-6.68184
71.30000,-11.88370,-6.68759
71.35001,-11.89197,-6.68360
71.40000,-11.90037,-6.68839
71.45001,-11.90864,-6.68607
71.50000,-11.91677,-6.69054
71.55000,-11.92517,-6.68757
71.60001,-11.93370,-6.69195
71.65000,-11.94197,-6.69160
71.70001,-11.95024,-6.69373
71.75000,-11.95877,-6.69317
71.80000,-11.96704,-6.69647
71.85001,-11.97504,-6.69599
71.90000,-11.98357,-6.69587
71.95001,-11.99210,-6.69963
72.00000,-12.00024,-6.69904
72.05000,-12.00850,-6.70146
72.10001,-12.01704,-6.70105
72.15000,-12.02517,-6.70281
72.20001,-12.03357,-6.70229
72.25000,-12.04197,-6.70357
72.30000,-12.05010,-6.70261
72.35001,-12.05837,-6.70407
72.40000,-12.06677,-6.70306
72.45001,-12.07517,-6.70575
72.50000,-12.08370,-6.70378
72.55000,-12.09197,-6.71078
72.60001,-12.10024,-6.70427
72.65000,-12.10890,-6.71203
72.70001,-12.11704,-6.70681
72.75000,-12.12517,-6.71201
72.80000,-12.13370,-6.70615
72.85001,-12.14210,-6.71280
72.90000,-12.15010,-6.70932
72.95001,-12.15850,-6.71025
73.00000,-12.16704,-6.71135
73.05000,-12.17504,-6.71108
73.10001,-12.18330,-6.71297
73.15000,-12.19197,-6.71273
73.20001,-12.20024,-6.71590
73.25000,-12.20864,-6.71546
73.30000,-12.21704,-6.71664
73.35001,-12.22530,-6.71667
73.40000,-12.23357,-6.71745
73.45001,-12.24197,-6.71763
73.50000,-12.25024,-6.71972
73.55000,-12.25877,-6.71771
73.60001,-12.26704,-6.72218
73.65000,-12.27517,-6.71777
73.70001,-12.28384,-6.72367
73.75000,-12.29197,-6.71794
73.80000,-12.30010,-6.72553
73.85001,-12.30850,-6.71668
73.90000,-12.31690,-6.72580
73.95001,-12.32504,-6.71987
74.00000,-12.33357,-6.72547
74.05000,-12.34224,-6.72380
74.10001,-12.35037,-6.72800
74.15000,-12.35850,-6.72550
74.20001,-12.36717,-6.72673
74.25000,-12.37544,-6.72811
74.30000,-12.38357,-6.72644
74.35001,-12.39197,-6.72863
74.40000,-12.40037,-6.72766
74.45001,-12.40864,-6.72978
74.50000,-12.41704,-6.72934
74.55000,-12.42530,-6.73128
74.60001,-12.43370,-6.73152
74.65000,-12.44197,-6.73166
74.70001,-12.45010,-6.73465
74.75000,-12.45864,-6.73021
74.80000,-12.46704,-6.73723
74.85001,-12.47517,-6.73236
74.90000,-12.48357,-6.73742
74.95001,-12.49210,-6.73410
75.00000,-12.50037,-6.74073
75.05000,-12.50850,-6.73585
75.10001,-12.51717,-6.74159
75.15000,-12.52557,-6.74039
75.20001,-12.53357,-6.74477
75.25000,-12.54197,-6.73880
75.30000,-12.55050,-6.74808
75.35001,-12.55864,-6.74121
75.40000,-12.56677,-6.74977
75.45001,-12.57517,-6.74156
75.50000,-12.58344,-6.75137
75.55000,-12.59170,-6.74468
75.60001,-12.60010,-6.75304
75.65000,-12.60850,-6.74954
75.70001,-12.61690,-6.75568
75.75000,-12.62530,-6.75601
75.80000,-12.63344,-6.75668
75.85001,-12.64197,-6.75979
75.90000,-12.65024,-6.76045
75.95001,-12.65837,-6.76421
76.00000,-12.66704,-6.76387
76.05000,-12.67544,-6.77037
76.10001,-12.68344,-6.76841
76.15000,-12.69184,-6.77067
76.20001,-12.70037,-6.77200
76.25000,-12.70837,-6.77510
76.30000,-12.71677,-6.77463
76.35001,-12.72517,-6.77800
76.40000,-12.73357,-6.77916
76.45001,-12.74184,-6.78251
76.50000,-12.75024,-6.78281
76.55000,-12.75864,-6.78770
76.60001,-12.76704,-6.78673
76.65000,-12.77544,-6.79182
76.70001,-12.78370,-6.79023
76.75000,-12.79210,-6.79453
76.80000,-12.80037,-6.79310
76.85001,-12.80837,-6.79602
76.90000,-12.81704,-6.79587
76.95001,-12.82530,-6.79778
77.00000,-12.83344,-6.79923
77.05000,-12.84184,-6.79868
77.10001,-12.85037,-6.80300
77.15000,-12.85837,-6.80184
77.20001,-12.86690,-6.80518
77.25000,-12.87543,-6.80637
77.30000,-12.88357,-6.80925
77.35001,-12.89184,-6.80856
77.40000,-12.90037,-6.81117
77.45001,-12.90863,-6.81296
77.50000,-12.91690,-6.81294
77.55000,-12.92543,-6.81576
77.60001,-12.93384,-6.81636
77.65000,-12.94197,-6.81736
77.70001,-12.95037,-6.81916
77.75000,-12.95850,-6.81913
77.80000,-12.96690,-6.82106
77.85001,-12.97530,-6.82193
77.90000,-12.98343,-6.82531
77.95001,-12.99197,-6.82296
78.00000,-13.00050,-6.82777
78.05000,-13.00863,-6.82813
78.10001,-13.01690,-6.82888
78.15000,-13.02543,-6.82952
78.20001,-13.03370,-6.83176
78.25000,-13.04184,-6.83202
78.30000,-13.05037,-6.83269
78.35001,-13.05877,-6.83540
78.40000,-13.06690,-6.83553
78.45001,-13.07517,-6.83655
78.50000,-13.08370,-6.83770
78.55000,-13.09183,-6.83872
78.60001,-13.10023,-6.84141
78.65000,-13.10863,-6.84210
78.70001,-13.11690,-6.84446
78.75000,-13.12517,-6.84415
78.80000,-13.13343,-6.84667
78.85001,-13.14183,-6.84615
78.90000,-13.15023,-6.84974
78.95001,-13.15850,-6.85297
79.00000,-13.16677,-6.85143
79.05000,-13.17530,-6.85490
79.10001,-13.18370,-6.85816
79.15000,-13.19183,-6.85943
79.20001,-13.20037,-6.85969
79.25000,-13.20877,-6.86348
79.30000,-13.21677,-6.86347
79.35001,-13.22530,-6.86454
79.40000,-13.23370,-6.86689
79.45001,-13.24170,-6.86870
79.50000,-13.24997,-6.86847
79.55000,-13.25863,-6.87124
79.60001,-13.26690,-6.87495
79.65000,-13.27530,-6.87622
79.70001,-13.28370,-6.87802
79.75000,-13.29197,-6.87909
79.80000,-13.30023,-6.88115
79.85001,-13.30863,-6.88194
79.90000,-13.31703,-6.88371
79.95001,-13.32543,-6.88647
80.00000,-13.33383,-6.88852
80.05000,-13.34197,-6.89003
80.10001,-13.35050,-6.89041
80.15000,-13.35877,-6.89214
80.20001,-13.36690,-6.89345
80.25000,-13.37530,-6.89295
80.30000,-13.38370,-6.89566
80.35001,-13.39183,-6.89515
80.40000,-13.40010,-6.89577
80.45001,-13.40890,-6.89801
80.50001,-13.41703,-6.90105
80.55000,-13.42530,-6.89971
80.60001,-13.43383,-6.90249
80.65000,-13.44210,-6.90458
80.70001,-13.45037,-6.90574
80.75001,-13.45877,-6.90728
80.80000,-13.46703,-6.90913
80.85001,-13.47543,-6.91005
80.90000,-13.48370,-6.91168
80.95001,-13.49197,-6.91353
81.00001,-13.50050,-6.91456
81.05000,-13.50877,-6.91613
81.10001,-13.51690,-6.91703
81.15000,-13.52530,-6.91762
81.20001,-13.53370,-6.91919
81.25001,-13.54183,-6.92062
81.30000,-13.55023,-6.92190
81.35001,-13.55877,-6.92378
81.40000,-13.56703,-6.92460
81.45001,-13.57517,-6.92506
81.50001,-13.58370,-6.92530
81.55000,-13.59223,-6.92717
81.60001,-13.60023,-6.92711
81.65000,-13.60850,-6.92807
81.70001,-13.61690,-6.92794
81.75001,-13.62503,-6.92802
81.80000,-13.63343,-6.92937
81.85001,-13.64183,-6.93006
81.90000,-13.64997,-6.93010
81.95001,-13.65823,-6.93070
82.00001,-13.66677,-6.93257
82.05000,-13.67517,-6.93400
82.10001,-13.68370,-6.93638
82.15000,-13.69197,-6.93558
82.20001,-13.70010,-6.93618
82.25001,-13.70877,-6.93646
82.30000,-13.71703,-6.93868
82.35001,-13.72517,-6.93706
82.40000,-13.73370,-6.93842
82.45001,-13.74210,-6.93923
82.50001,-13.75010,-6.93822
82.55000,-13.75837,-6.93721
82.60001,-13.76703,-6.93909
82.65000,-13.77503,-6.93903
82.70001,-13.78330,-6.93932
82.75001,-13.79197,-6.93867
82.80000,-13.80023,-6.94138
82.85001,-13.80850,-6.94032
82.90000,-13.81703,-6.94263
82.95001,-13.82530,-6.94270
83.00001,-13.83370,-6.94448
83.05000,-13.84210,-6.94589
83.10001,-13.85037,-6.94633
83.15000,-13.85877,-6.94674
83.20001,-13.86717,-6.94802
83.25001,-13.87517,-6.94775
83.30000,-13.88370,-6.94732
83.35001,-13.89210,-6.95066
83.40000,-13.90023,-6.94992
83.45001,-13.90850,-6.95013
83.50001,-13.91690,-6.95199
83.55000,-13.92503,-6.95107
83.60001,-13.93357,-6.95163
83.65000,-13.94223,-6.95548
83.70001,-13.95023,-6.95573
83.75001,-13.95850,-6.95438
83.80000,-13.96690,-6.95622
83.85001,-13.97530,-6.95826
83.90000,-13.98357,-6.95793
83.95001,-13.99210,-6.95999
84.00001,-14.00050,-6.96151
84.05000,-14.00863,-6.96201
84.10001,-14.01703,-6.96092
84.15000,-14.02530,-6.96244
84.20001,-14.03370,-6.96209
84.25001,-14.04197,-6.96394
84.30000,-14.05010,-6.96428
84.35001,-14.05850,-6.96515
84.40000,-14.06703,-6.96584
84.45001,-14.07517,-6.96901
84.50001,-14.08357,-6.96855
84.55000,-14.09210,-6.97107
84.60001,-14.10037,-6.97240
84.65000,-14.10850,-6.97357
84.70001,-14.11703,-6.97454
84.75001,-14.12557,-6.97816
84.80000,-14.13357,-6.97917
84.85001,-14.14183,-6.98112
84.90000,-14.15037,-6.98285
84.95001,-14.15850,-6.98488
85.00001,-14.16663,-6.98695
85.05000,-14.17517,-6.98938
85.10001,-14.18357,-6.99176
85.15000,-14.19170,-6.99441
85.20001,-14.20010,-6.99737
85.25001,-14.20863,-6.99829
85.30000,-14.21703,-7.00314
85.35001,-14.22530,-7.00678
85.40000,-14.23356,-7.00719
85.45001,-14.24197,-7.01030
85.50001,-14.25037,-7.01508
85.55000,-14.25837,-7.01611
85.60001,-14.26703,-7.01910
85.65000,-14.27543,-7.02523
85.70001,-14.28343,-7.02690
85.75001,-14.29183,-7.02923
85.80000,-14.30037,-7.03373
85.85001,-14.30850,-7.03741
85.90000,-14.31676,-7.03957
85.95001,-14.32530,-7.04469
86.00001,-14.33356,-7.04970
86.05000,-14.34183,-7.05326
86.10001,-14.35023,-7.05767
86.15000,-14.35863,-7.06281
86.20001,-14.36703,-7.06574
86.25001,-14.37530,-7.07076
86.30000,-14.38370,-7.07426
86.35001,-14.39210,-7.07879
86.40000,-14.40036,-7.08215
86.45001,-14.40836,-7.08606
86.50001,-14.41703,-7.08860
86.55000,-14.42543,-7.09349
86.60001,-14.43343,-7.09729
86.65000,-14.44183,-7.10035
86.70001,-14.45036,-7.10482
86.75001,-14.45836,-7.10879
86.80000,-14.46676,-7.11140
86.85001,-14.47530,-7.11725
86.90000,-14.48356,-7.12284
86.95001,-14.49196,-7.12687
87.00001,-14.50050,-7.13025
87.05000,-14.50876,-7.13579
87.10001,-14.51703,-7.13861
87.15000,-14.52556,-7.14233
87.20001,-14.53383,-7.14572
87.25001,-14.54196,-7.14840
87.30000,-14.55036,-7.15200
87.35001,-14.55863,-7.15551
87.40000,-14.56703,-7.15816
87.45001,-14.57530,-7.16295
87.50001,-14.58343,-7.16615
87.55000,-14.59183,-7.16624
87.60001,-14.60036,-7.17423
87.65000,-14.60863,-7.17649
87.70001,-14.61690,-7.18107
87.75001,-14.62543,-7.18280
87.80000,-14.63370,-7.19014
87.85001,-14.64170,-7.19203
87.90000,-14.65036,-7.19833
87.95001,-14.65890,-7.20195
88.00001,-14.66690,-7.20903
88.05000,-14.67530,-7.20991
88.10001,-14.68370,-7.21671
88.15000,-14.69183,-7.21676
88.20001,-14.69996,-7.22380
88.25001,-14.70850,-7.22556
88.30000,-14.71676,-7.23118
88.35001,-14.72503,-7.23296
88.40000,-14.73356,-7.23978
88.45001,-14.74183,-7.24048
88.50001,-14.75036,-7.24861
88.55000,-14.75863,-7.25150
88.60001,-14.76690,-7.25622
88.65000,-14.77543,-7.25831
88.70001,-14.78370,-7.26605
88.75001,-14.79183,-7.26747
88.80000,-14.80023,-7.27149
88.85001,-14.80876,-7.27640
88.90000,-14.81676,-7.28042
88.95001,-14.82530,-7.28340
89.00001,-14.83383,-7.28934
89.05000,-14.84183,-7.29297
89.10001,-14.85023,-7.29678
89.15000,-14.85876,-7.30144
89.20001,-14.86690,-7.30638
89.25001,-14.87516,-7.30952
89.30000,-14.88356,-7.31453
89.35001,-14.89196,-7.31894
89.40000,-14.90023,-7.32291
89.45001,-14.90863,-7.32845
89.50001,-14.91690,-7.33294
89.55000,-14.92543,-7.33768
89.60001,-14.93370,-7.34293
89.65000,-14.94183,-7.34756
89.70001,-14.95036,-7.35020
89.75001,-14.95863,-7.35693
89.80000,-14.96676,-7.36066
89.85001,-14.97516,-7.36464
89.90000,-14.98356,-7.37052
89.95001,-14.99170,-7.37608
90.00001,-15.00023,-7.38086
90.05000,-15.00876,-7.38709
90.10001,-15.01703,-7.39317
90.10800,-15.01836,-7.39397
