Time,Extension,Load
(sec),(mm),(N)
0.00000,0.35520,0.02819
0.05000,0.35387,0.02519
0.10000,0.34613,0.02995
0.15000,0.33600,0.02188
0.20000,0.32613,0.02823
0.25000,0.31627,0.02464
0.30000,0.30733,0.02879
0.35000,0.29853,0.02417
0.40000,0.28973,0.02880
0.45000,0.28120,0.02152
0.50000,0.27267,0.03113
0.55000,0.26400,0.02216
0.60000,0.25560,0.03008
0.65000,0.24693,0.02278
0.70000,0.23853,0.02661
0.75000,0.23027,0.02345
0.80000,0.22173,0.02535
0.85000,0.21347,0.02281
0.90000,0.20533,0.02278
0.95000,0.19680,0.02050
1.00000,0.18840,0.02055
1.05000,0.18027,0.01912
1.10000,0.17187,0.01778
1.15000,0.16333,0.01552
1.20000,0.15533,0.01502
1.25000,0.14707,0.01628
1.30000,0.13840,0.01272
1.35000,0.13013,0.01144
1.40000,0.12187,0.00805
1.45000,0.11333,0.00695
1.50000,0.10507,0.00605
1.55000,0.09680,0.00503
1.60000,0.08840,0.00299
1.65000,0.08013,0.00149
1.70000,0.07160,-0.00614
1.75000,0.06333,-0.00229
1.80000,0.05533,-0.00949
1.85000,0.04667,-0.00651
1.90000,0.03840,-0.01546
1.95000,0.03040,-0.01333
2.00000,0.02187,-0.02159
2.05000,0.01333,-0.01884
2.10000,0.00520,-0.03016
2.15000,-0.00307,-0.02430
2.20000,-0.01173,-0.03657
2.25000,-0.01987,-0.02667
2.30000,-0.02813,-0.03719
2.35000,-0.03667,-0.04116
2.40000,-0.04493,-0.04366
2.45000,-0.05333,-0.04815
2.50000,-0.06173,-0.04952
2.55000,-0.07000,-0.05177
2.60000,-0.07827,-0.05458
2.65000,-0.08653,-0.05790
2.70000,-0.09480,-0.06491
2.75000,-0.10320,-0.06562
2.80000,-0.11160,-0.07041
2.85000,-0.11973,-0.07207
2.90000,-0.12827,-0.07330
2.95000,-0.13667,-0.08049
3.00000,-0.14493,-0.08054
3.05000,-0.15333,-0.08676
3.10000,-0.16187,-0.09299
3.15000,-0.17013,-0.09164
3.20000,-0.17827,-0.09543
3.25000,-0.18667,-0.09783
3.30000,-0.19507,-0.10354
3.35000,-0.20320,-0.10431
3.40000,-0.21147,-0.11287
3.45000,-0.22000,-0.11262
3.50000,-0.22813,-0.11516
3.55000,-0.23627,-0.11911
3.60000,-0.24480,-0.12363
3.65000,-0.25320,-0.12555
3.70000,-0.26147,-0.13390
3.75000,-0.26987,-0.13484
3.80000,-0.27827,-0.14084
3.85000,-0.28667,-0.14124
3.90000,-0.29493,-0.15279
3.95000,-0.30320,-0.14926
4.00000,-0.31173,-0.15920
4.05000,-0.32000,-0.16030
4.10000,-0.32827,-0.16990
4.15000,-0.33667,-0.17136
4.20000,-0.34493,-0.17465
4.25000,-0.35307,-0.17974
4.30000,-0.36147,-0.18765
4.35000,-0.37000,-0.19128
4.40000,-0.37800,-0.20182
4.45000,-0.38627,-0.20262
4.50000,-0.39493,-0.21151
4.55000,-0.40320,-0.21724
4.60000,-0.41147,-0.22374
4.65000,-0.42000,-0.23204
4.70000,-0.42840,-0.23749
4.75000,-0.43667,-0.23916
4.80000,-0.44507,-0.25239
4.85000,-0.45333,-0.25500
4.90000,-0.46173,-0.26095
4.95000,-0.47000,-0.26596
5.00000,-0.47813,-0.27579
5.05000,-0.48667,-0.27995
5.10000,-0.49507,-0.28465
5.15000,-0.50307,-0.29790
5.20000,-0.51160,-0.29697
5.25000,-0.52000,-0.31146
5.30000,-0.52813,-0.31237
5.35000,-0.53653,-0.32524
5.40000,-0.54520,-0.33084
5.45000,-0.55333,-0.33807
5.50000,-0.56160,-0.34729
5.55000,-0.57000,-0.35655
5.60000,-0.57827,-0.36461
5.65000,-0.58640,-0.37495
5.70000,-0.59493,-0.38261
5.75000,-0.60333,-0.39440
5.80000,-0.61160,-0.40329
5.85000,-0.61987,-0.41336
5.90000,-0.62813,-0.42287
5.95000,-0.63653,-0.43782
6.00000,-0.64480,-0.44018
6.05000,-0.65307,-0.45747
6.10000,-0.66147,-0.46288
6.15000,-0.67000,-0.48073
6.20000,-0.67827,-0.48322
6.25000,-0.68653,-0.50133
6.30000,-0.69506,-0.50862
6.35000,-0.70333,-0.52494
6.40000,-0.71160,-0.52878
6.45000,-0.72013,-0.54475
6.50000,-0.72840,-0.55633
6.55000,-0.73640,-0.56609
6.60000,-0.74480,-0.57931
6.65000,-0.75320,-0.59117
6.70000,-0.76133,-0.60288
6.75000,-0.76973,-0.61428
6.80000,-0.77826,-0.62648
6.85000,-0.78653,-0.64162
6.90000,-0.79480,-0.65262
6.95000,-0.80320,-0.66539
7.00000,-0.81160,-0.67885
7.05000,-0.82000,-0.69177
7.10000,-0.82826,-0.70508
7.15000,-0.83653,-0.71928
7.20000,-0.84506,-0.72891
7.25000,-0.85333,-0.74868
7.30000,-0.86146,-0.75547
7.35000,-0.87013,-0.77479
7.40000,-0.87840,-0.78226
7.45000,-0.88640,-0.80212
7.50000,-0.89480,-0.80927
7.55000,-0.90320,-0.82767
7.60000,-0.91133,-0.83671
7.65000,-0.91960,-0.85379
7.70000,-0.92826,-0.86396
7.75000,-0.93653,-0.88077
7.80000,-0.94493,-0.89389
7.85000,-0.95346,-0.90431
7.90000,-0.96160,-0.92265
7.95000,-0.96986,-0.93009
8.00000,-0.97840,-0.95139
8.05000,-0.98666,-0.95504
8.10000,-0.99506,-0.97894
8.15000,-1.00346,-0.98250
8.20000,-1.01146,-1.00622
8.25000,-1.02000,-1.00792
8.30000,-1.02840,-1.03382
8.35000,-1.03640,-1.03473
8.40000,-1.04493,-1.06231
8.45000,-1.05333,-1.06375
8.50000,-1.06133,-1.08693
8.55000,-1.06986,-1.09216
8.60000,-1.07840,-1.11632
8.65000,-1.08653,-1.12051
8.70000,-1.09480,-1.14083
8.75000,-1.10346,-1.14953
8.80000,-1.11173,-1.17040
8.85000,-1.11986,-1.17722
8.90000,-1.12840,-1.19648
8.95000,-1.13680,-1.20383
9.00000,-1.14493,-1.22697
9.05000,-1.15333,-1.23341
9.10000,-1.16160,-1.25072
9.15000,-1.17000,-1.26236
9.20000,-1.17826,-1.28088
9.25000,-1.18640,-1.29120
9.30000,-1.19493,-1.30699
9.35000,-1.20333,-1.31894
9.40000,-1.21160,-1.33753
9.45000,-1.22000,-1.34701
9.50000,-1.22840,-1.36608
9.55000,-1.23666,-1.37654
9.60000,-1.24480,-1.39338
9.65000,-1.25333,-1.40870
9.70000,-1.26173,-1.42437
9.75000,-1.26986,-1.43761
9.80000,-1.27813,-1.45128
9.85000,-1.28680,-1.46658
9.90000,-1.29493,-1.48040
9.95000,-1.30293,-1.49364
10.00000,-1.31133,-1.50877
10.05000,-1.31973,-1.52061
10.10000,-1.32813,-1.53926
10.15000,-1.33653,-1.54767
10.20000,-1.34493,-1.56481
10.25000,-1.35320,-1.57689
10.30000,-1.36160,-1.59673
10.35000,-1.36986,-1.60977
10.40000,-1.37840,-1.62436
10.45000,-1.38666,-1.64093
10.50000,-1.39480,-1.65526
10.55000,-1.40333,-1.66981
10.60000,-1.41160,-1.68665
10.65000,-1.41960,-1.69515
10.70000,-1.42813,-1.71361
10.75000,-1.43680,-1.72251
10.80000,-1.44480,-1.73724
10.85000,-1.45306,-1.74910
10.90000,-1.46160,-1.75642
10.95000,-1.46986,-1.76549
11.00000,-1.47813,-1.77013
11.05000,-1.48666,-1.77705
11.10000,-1.49493,-1.77809
11.15000,-1.50320,-1.78554
11.20000,-1.51173,-1.79087
11.25000,-1.52000,-1.80147
11.30000,-1.52840,-1.80827
11.35000,-1.53666,-1.81905
11.40000,-1.54480,-1.82070
11.45000,-1.55333,-1.84267
11.50000,-1.56160,-1.85647
11.55000,-1.56973,-1.87257
11.60000,-1.57813,-1.88372
11.65000,-1.58666,-1.89977
11.70000,-1.59466,-1.91271
11.75000,-1.60306,-1.92568
11.80000,-1.61173,-1.94752
11.85000,-1.61986,-1.96092
11.90000,-1.62813,-1.97885
11.95000,-1.63680,-1.99416
12.00000,-1.64493,-2.00865
12.05000,-1.65320,-2.02514
12.10000,-1.66173,-2.03966
12.15000,-1.67000,-2.05692
12.20000,-1.67826,-2.06440
12.25000,-1.68653,-2.07307
12.30000,-1.69480,-2.07357
12.35000,-1.70333,-2.07959
12.40000,-1.71160,-2.07814
12.45000,-1.71973,-2.08106
12.50000,-1.72826,-2.08347
12.55000,-1.73666,-2.09111
12.60000,-1.74480,-2.09583
12.65000,-1.75320,-2.10092
12.70000,-1.76173,-2.10094
12.75000,-1.77000,-2.10741
12.80000,-1.77826,-2.12387
12.85000,-1.78666,-2.13936
12.90000,-1.79506,-2.15614
12.95000,-1.80320,-2.16781
13.00000,-1.81146,-2.18007
13.05000,-1.81986,-2.18276
13.10000,-1.82800,-2.20211
13.15000,-1.83640,-2.19733
13.20000,-1.84480,-2.22137
13.25000,-1.85306,-2.22155
13.30000,-1.86133,-2.25033
13.35000,-1.86986,-2.25374
13.40000,-1.87826,-2.28190
13.45000,-1.88666,-2.28223
13.50000,-1.89493,-2.30915
13.55000,-1.90320,-2.31540
13.60000,-1.91173,-2.34037
13.65000,-1.92000,-2.34608
13.70000,-1.92813,-2.36584
13.75000,-1.93666,-2.37617
13.80000,-1.94506,-2.39644
13.85000,-1.95306,-2.40818
13.90000,-1.96146,-2.42681
13.95000,-1.97000,-2.43706
14.00000,-1.97800,-2.45262
14.05000,-1.98626,-2.45971
14.10000,-1.99480,-2.48259
14.15000,-2.00320,-2.49393
14.20000,-2.01146,-2.51655
14.25000,-2.01986,-2.52400
14.30000,-2.02826,-2.52479
14.35000,-2.03653,-2.55177
14.40000,-2.04506,-2.54947
14.45000,-2.05333,-2.57917
14.50000,-2.06159,-2.58879
14.55000,-2.07000,-2.60634
14.60000,-2.07813,-2.61783
14.65000,-2.08653,-2.62756
14.70000,-2.09493,-2.64927
14.75000,-2.10306,-2.66280
14.80000,-2.11159,-2.67264
14.85000,-2.11999,-2.69000
14.90000,-2.12813,-2.69704
14.95000,-2.13653,-2.71673
15.00000,-2.14519,-2.72685
15.05000,-2.15333,-2.74582
15.10000,-2.16146,-2.75318
15.15000,-2.17013,-2.76731
15.20000,-2.17839,-2.77860
15.25000,-2.18666,-2.79337
15.30000,-2.19506,-2.80843
15.35000,-2.20346,-2.82011
15.40000,-2.21159,-2.83050
15.45000,-2.21986,-2.84552
15.50000,-2.22813,-2.85707
15.55000,-2.23653,-2.87529
15.60000,-2.24493,-2.88469
15.65000,-2.25306,-2.90037
15.70000,-2.26146,-2.90925
15.75000,-2.26999,-2.92471
15.80000,-2.27813,-2.93774
15.85000,-2.28653,-2.95427
15.90000,-2.29506,-2.96344
15.95000,-2.30333,-2.97726
16.00000,-2.31159,-2.98310
16.05000,-2.32013,-2.99954
16.10000,-2.32839,-3.01279
16.15000,-2.33653,-3.02546
16.20000,-2.34479,-3.03895
16.25000,-2.35346,-3.04956
16.30000,-2.36146,-3.05832
16.35000,-2.36973,-3.06732
16.40000,-2.37813,-3.08318
16.45000,-2.38639,-3.10077
16.50000,-2.39466,-3.10970
16.55000,-2.40306,-3.11990
16.60000,-2.41159,-3.12649
16.65000,-2.41999,-3.14454
16.70000,-2.42813,-3.15496
16.75000,-2.43653,-3.17071
16.80000,-2.44506,-3.18174
16.85000,-2.45333,-3.19422
16.90000,-2.46146,-3.20401
16.95000,-2.47013,-3.21722
17.00000,-2.47839,-3.23080
17.05000,-2.48639,-3.24159
17.10000,-2.49479,-3.25264
17.15000,-2.50333,-3.26270
17.20000,-2.51133,-3.27489
17.25000,-2.51959,-3.28827
17.30000,-2.52826,-3.29949
17.35000,-2.53666,-3.31491
17.40000,-2.54493,-3.32302
17.45000,-2.55333,-3.33664
17.50000,-2.56173,-3.34936
17.55000,-2.56999,-3.36073
17.60000,-2.57839,-3.37332
17.65000,-2.58666,-3.38317
17.70000,-2.59506,-3.39215
17.75000,-2.60333,-3.40760
17.80000,-2.61146,-3.41845
17.85000,-2.61999,-3.43117
17.90000,-2.62826,-3.44057
17.95000,-2.63639,-3.45288
18.00000,-2.64479,-3.46107
18.05000,-2.65333,-3.47703
18.10000,-2.66133,-3.48682
18.15000,-2.66959,-3.50224
18.20000,-2.67839,-3.50977
18.25000,-2.68653,-3.52555
18.30000,-2.69479,-3.53267
18.35000,-2.70333,-3.55007
18.40000,-2.71173,-3.55826
18.45000,-2.71986,-3.57395
18.50000,-2.72826,-3.58124
18.55000,-2.73666,-3.59480
18.60000,-2.74479,-3.60341
18.65000,-2.75306,-3.61963
18.70000,-2.76133,-3.62863
18.75000,-2.76999,-3.64136
18.80000,-2.77839,-3.64921
18.85000,-2.78653,-3.67119
18.90000,-2.79493,-3.67401
18.95000,-2.80333,-3.69524
19.00000,-2.81159,-3.70153
19.05000,-2.81986,-3.71858
19.10000,-2.82853,-3.72685
19.15000,-2.83666,-3.74512
19.20000,-2.84493,-3.75001
19.25000,-2.85346,-3.77027
19.30000,-2.86186,-3.77475
19.35000,-2.86999,-3.79335
19.40000,-2.87826,-3.79949
19.45000,-2.88666,-3.81463
19.50000,-2.89479,-3.82418
19.55000,-2.90306,-3.83656
19.60000,-2.91146,-3.84703
19.65000,-2.91973,-3.86050
19.70000,-2.92799,-3.86999
19.75000,-2.93639,-3.88378
19.80000,-2.94479,-3.89266
19.85000,-2.95333,-3.90871
19.90000,-2.96159,-3.91705
19.95000,-2.96986,-3.92940
20.00000,-2.97839,-3.93911
20.05000,-2.98666,-3.95613
20.10000,-2.99479,-3.95916
20.15000,-3.00333,-3.97665
20.20000,-3.01173,-3.98381
20.25000,-3.01973,-3.99711
20.30000,-3.02813,-4.00454
20.35000,-3.03666,-4.01996
20.40000,-3.04466,-4.02610
20.45000,-3.05293,-4.03915
20.50000,-3.06159,-4.04741
20.55000,-3.06986,-4.06279
20.60000,-3.07813,-4.06883
20.65000,-3.08666,-4.08080
20.70000,-3.09493,-4.09333
20.75000,-3.10333,-4.10107
20.80000,-3.11159,-4.11373
20.85000,-3.11999,-4.12127
20.90000,-3.12839,-4.13422
20.95000,-3.13666,-4.14187
21.00000,-3.14479,-4.15339
21.05000,-3.15333,-4.16180
21.10000,-3.16159,-4.17447
21.15000,-3.16959,-4.18005
21.20000,-3.17813,-4.19576
21.25000,-3.18666,-4.19759
21.30000,-3.19466,-4.21466
21.35000,-3.20306,-4.21908
21.40000,-3.21186,-4.23189
21.45000,-3.21999,-4.24017
21.50000,-3.22813,-4.24936
21.55000,-3.23679,-4.25979
21.60000,-3.24506,-4.26710
21.65000,-3.25319,-4.27855
21.70000,-3.26173,-4.28520
21.75000,-3.27013,-4.29633
21.80000,-3.27826,-4.30322
21.85000,-3.28653,-4.31292
21.90000,-3.29493,-4.32175
21.95000,-3.30346,-4.33179
22.00000,-3.31159,-4.33774
22.05000,-3.31973,-4.35020
22.10000,-3.32813,-4.35248
22.15000,-3.33666,-4.36879
22.20000,-3.34479,-4.37117
22.25000,-3.35319,-4.38559
22.30000,-3.36173,-4.38697
22.35000,-3.36999,-4.40387
22.40000,-3.37813,-4.40437
22.45000,-3.38652,-4.42008
22.50000,-3.39506,-4.42073
22.55000,-3.40306,-4.43607
22.60000,-3.41132,-4.43595
22.65000,-3.41986,-4.45119
22.70000,-3.42813,-4.45307
22.75000,-3.43639,-4.46767
22.80000,-3.44479,-4.47010
22.85000,-3.45319,-4.48273
22.90000,-3.46146,-4.48697
22.95000,-3.46986,-4.50029
23.00000,-3.47812,-4.50005
23.05000,-3.48666,-4.51763
23.10000,-3.49492,-4.51849
23.15000,-3.50319,-4.53125
23.20000,-3.51172,-4.53360
23.25000,-3.51999,-4.54840
23.30000,-3.52812,-4.55051
23.35000,-3.53652,-4.56103
23.40000,-3.54492,-4.56588
23.45000,-3.55292,-4.57393
23.50000,-3.56132,-4.58104
23.55000,-3.56999,-4.58811
23.60000,-3.57799,-4.59578
23.65000,-3.58626,-4.60193
23.70000,-3.59492,-4.60940
23.75000,-3.60319,-4.61643
23.80000,-3.61146,-4.62342
23.85000,-3.61999,-4.63011
23.90000,-3.62839,-4.63749
23.95000,-3.63666,-4.64091
24.00000,-3.64492,-4.65160
24.05000,-3.65319,-4.65621
24.10000,-3.66172,-4.66445
24.15000,-3.66999,-4.66858
24.20000,-3.67812,-4.67821
24.25000,-3.68666,-4.68035
24.30000,-3.69506,-4.69112
24.35000,-3.70306,-4.69061
24.40000,-3.71146,-4.70276
24.45000,-3.71999,-4.70299
24.50000,-3.72799,-4.71308
24.55000,-3.73639,-4.71410
24.60000,-3.74519,-4.72582
24.65000,-3.75332,-4.72734
24.70000,-3.76146,-4.73782
24.75000,-3.76999,-4.73761
24.80000,-3.77839,-4.74844
24.85000,-3.78652,-4.75046
24.90000,-3.79506,-4.75895
24.95000,-3.80332,-4.75876
25.00000,-3.81159,-4.77075
25.05000,-3.81986,-4.76741
25.10000,-3.82812,-4.78003
25.15000,-3.83652,-4.77543
25.20000,-3.84479,-4.79012
25.25000,-3.85292,-4.78675
25.30000,-3.86146,-4.79815
25.35000,-3.86999,-4.79804
25.40000,-3.87812,-4.80969
25.45000,-3.88652,-4.80797
25.50000,-3.89506,-4.81879
25.55000,-3.90332,-4.82058
25.60000,-3.91146,-4.82799
25.65000,-3.91999,-4.83010
25.70000,-3.92839,-4.83751
25.75000,-3.93652,-4.84045
25.80000,-3.94492,-4.84673
25.85000,-3.95332,-4.84994
25.90000,-3.96146,-4.85516
25.95000,-3.96972,-4.85994
26.00000,-3.97812,-4.86465
26.05000,-3.98639,-4.86909
26.10000,-3.99466,-4.87292
26.15000,-4.00306,-4.87980
26.20000,-4.01146,-4.88141
26.25000,-4.01999,-4.88809
26.30000,-4.02826,-4.89116
26.35000,-4.03652,-4.89977
26.40000,-4.04506,-4.89735
26.45000,-4.05319,-4.90697
26.50000,-4.06132,-4.90649
26.55000,-4.06986,-4.91166
26.60000,-4.07826,-4.91654
26.65000,-4.08639,-4.92077
26.70000,-4.09479,-4.92192
26.75000,-4.10332,-4.92855
26.80000,-4.11146,-4.93112
26.85000,-4.11972,-4.93480
26.90000,-4.12839,-4.93838
26.95000,-4.13666,-4.94252
27.00000,-4.14479,-4.94458
27.05000,-4.15332,-4.94623
27.10000,-4.16172,-4.95599
27.15000,-4.16999,-4.95136
27.20000,-4.17826,-4.96213
27.25000,-4.18666,-4.95608
27.30000,-4.19506,-4.96812
27.35000,-4.20332,-4.96258
27.40000,-4.21146,-4.97180
27.45000,-4.21999,-4.96837
27.50000,-4.22826,-4.97889
27.55000,-4.23639,-4.97198
27.60000,-4.24479,-4.98538
27.65000,-4.25332,-4.98055
27.70000,-4.26132,-4.98693
27.75000,-4.26972,-4.98999
27.80000,-4.27839,-4.99286
27.85000,-4.28666,-4.99611
27.90000,-4.29479,-4.99719
27.95000,-4.30346,-5.00204
28.00000,-4.31172,-5.00448
28.05000,-4.31999,-5.00702
28.10000,-4.32839,-5.00682
28.15000,-4.33679,-5.01352
28.20000,-4.34492,-5.01218
28.25000,-4.35319,-5.01935
28.30000,-4.36159,-5.01408
28.35000,-4.36999,-5.02521
28.40000,-4.37826,-5.01909
28.45000,-4.38639,-5.02368
28.50000,-4.39479,-5.02831
28.55000,-4.40332,-5.02518
28.60000,-4.41146,-5.03197
28.65000,-4.41986,-5.02610
28.70000,-4.42839,-5.03535
28.75000,-4.43666,-5.03240
28.80000,-4.44479,-5.03442
28.85000,-4.45319,-5.03417
28.90000,-4.46172,-5.04052
28.95000,-4.46986,-5.03217
29.00000,-4.47812,-5.04448
29.05000,-4.48666,-5.03518
29.10000,-4.49479,-5.04383
29.15000,-4.50306,-5.04091
29.20000,-4.51146,-5.04755
29.25000,-4.51972,-5.04125
29.30000,-4.52812,-5.05049
29.35000,-4.53652,-5.04802
29.40000,-4.54479,-5.05156
29.45000,-4.55332,-5.05192
29.50000,-4.56159,-5.05752
29.55000,-4.56986,-5.05346
29.60000,-4.57839,-5.05995
29.65000,-4.58652,-5.05791
29.70000,-4.59479,-5.06258
29.75000,-4.60332,-5.06228
29.80000,-4.61172,-5.06518
29.85000,-4.61972,-5.06602
29.90000,-4.62812,-5.06648
29.95000,-4.63666,-5.06866
30.00000,-4.64466,-5.06948
30.05000,-4.65292,-5.06996
30.10000,-4.66146,-5.06974
30.15000,-4.66986,-5.07314
30.20000,-4.67812,-5.07232
30.25000,-4.68652,-5.07228
30.30000,-4.69492,-5.07073
30.35000,-4.70332,-5.06868
30.40000,-4.71159,-5.06845
30.45000,-4.71986,-5.06498
30.50000,-4.72826,-5.06438
30.55000,-4.73666,-5.06809
30.60000,-4.74479,-5.06883
30.65000,-4.75346,-5.07115
30.70000,-4.76172,-5.07345
30.75000,-4.76986,-5.07499
30.80000,-4.77826,-5.07542
30.85000,-4.78665,-5.07619
30.90000,-4.79479,-5.08034
30.95000,-4.80319,-5.07989
31.00000,-4.81172,-5.08259
31.05000,-4.81999,-5.08364
31.10000,-4.82826,-5.08547
31.15000,-4.83679,-5.08634
31.20000,-4.84505,-5.08894
31.25000,-4.85332,-5.08901
31.30000,-4.86172,-5.09156
31.35000,-4.86999,-5.09131
31.40000,-4.87825,-5.09368
31.45000,-4.88652,-5.09306
31.50000,-4.89479,-5.09630
31.55000,-4.90332,-5.09526
31.60000,-4.91145,-5.09978
31.65000,-4.91959,-5.09810
31.70000,-4.92812,-5.10140
31.75000,-4.93665,-5.09988
31.80000,-4.94492,-5.10607
31.85000,-4.95319,-5.10104
31.90000,-4.96185,-5.10714
31.95000,-4.97012,-5.10481
32.00000,-4.97812,-5.10733
32.05000,-4.98665,-5.10393
32.10000,-4.99505,-5.10961
32.15000,-5.00319,-5.10521
32.20000,-5.01145,-5.10719
32.25000,-5.01999,-5.10680
32.30000,-5.02812,-5.10813
32.35000,-5.03639,-5.10529
32.40000,-5.04492,-5.10817
32.45000,-5.05305,-5.10300
32.50000,-5.06132,-5.11123
32.55000,-5.06985,-5.10331
32.60000,-5.07825,-5.10861
32.65000,-5.08665,-5.10973
32.70000,-5.09505,-5.10763
32.75000,-5.10319,-5.10811
32.80000,-5.11172,-5.10864
32.85000,-5.11999,-5.10942
32.90000,-5.12812,-5.10783
32.95000,-5.13665,-5.10864
33.00000,-5.14492,-5.10982
33.05000,-5.15305,-5.10737
33.10000,-5.16145,-5.10920
33.15000,-5.16999,-5.10802
33.20000,-5.17799,-5.11164
33.25000,-5.18625,-5.10532
33.30000,-5.19492,-5.10920
33.35000,-5.20319,-5.10555
33.40000,-5.21145,-5.10857
33.45000,-5.21985,-5.10379
33.50000,-5.22839,-5.10708
33.55000,-5.23665,-5.10239
33.60000,-5.24505,-5.10614
33.65000,-5.25332,-5.09985
33.70000,-5.26172,-5.10225
33.75000,-5.26999,-5.09835
33.80000,-5.27812,-5.10006
33.85000,-5.28665,-5.09471
33.90000,-5.29492,-5.09822
33.95000,-5.30305,-5.09319
34.00000,-5.31145,-5.09390
34.05000,-5.31999,-5.09149
34.10000,-5.32799,-5.09127
34.15000,-5.33625,-5.08797
34.20000,-5.34505,-5.09027
34.25000,-5.35319,-5.08831
34.30000,-5.36145,-5.08595
34.35000,-5.37012,-5.08830
34.40000,-5.37839,-5.08740
34.45000,-5.38652,-5.08510
34.50000,-5.39492,-5.08313
34.55000,-5.40319,-5.08747
34.60000,-5.41159,-5.08202
34.65000,-5.41985,-5.08534
34.70000,-5.42812,-5.08113
34.75000,-5.43665,-5.08583
34.80000,-5.44492,-5.07711
34.85000,-5.45319,-5.08087
34.90000,-5.46159,-5.07671
34.95000,-5.46999,-5.07819
35.00000,-5.47812,-5.07349
35.05000,-5.48652,-5.07752
35.10000,-5.49505,-5.07125
35.15000,-5.50332,-5.07433
35.20000,-5.51159,-5.06965
35.25000,-5.51999,-5.07075
35.30000,-5.52852,-5.06821
35.35000,-5.53652,-5.06579
35.40000,-5.54479,-5.04653
35.45000,-5.55345,-5.03809
35.50000,-5.56145,-5.03796
35.55000,-5.56972,-5.03744
35.60000,-5.57812,-5.03503
35.65000,-5.58639,-5.03504
35.70000,-5.59465,-5.03430
35.75000,-5.60319,-5.03486
35.80000,-5.61159,-5.03529
35.85000,-5.61999,-5.03430
35.90000,-5.62825,-5.03751
35.95000,-5.63652,-5.03375
36.00000,-5.64505,-5.03658
36.05000,-5.65332,-5.03429
36.10000,-5.66145,-5.03624
36.15000,-5.66999,-5.03349
36.20000,-5.67825,-5.03632
36.25000,-5.68639,-5.03226
36.30000,-5.69479,-5.03422
36.35000,-5.70332,-5.03112
36.40000,-5.71132,-5.03097
36.45000,-5.71959,-5.03090
36.50000,-5.72825,-5.03062
36.55000,-5.73652,-5.02810
36.60000,-5.74479,-5.02729
36.65000,-5.75332,-5.03024
36.70000,-5.76172,-5.02678
36.75000,-5.76985,-5.02499
36.80000,-5.77825,-5.02298
36.85000,-5.78652,-5.02477
36.90000,-5.79492,-5.01943
36.95000,-5.80332,-5.02200
37.00000,-5.81145,-5.01705
37.05000,-5.81999,-5.01277
37.10000,-5.82839,-5.01543
37.15000,-5.83639,-5.01170
37.20000,-5.84479,-5.00492
37.25000,-5.85332,-5.00362
37.30000,-5.86145,-5.00211
37.35000,-5.86985,-4.99935
37.40000,-5.87852,-4.99122
37.45000,-5.88652,-4.99970
37.50000,-5.89479,-4.98671
37.55000,-5.90345,-4.99012
37.60000,-5.91172,-4.98539
37.65000,-5.91999,-4.98417
37.70000,-5.92839,-4.97982
37.75000,-5.93679,-4.97705
37.80000,-5.94492,-4.97287
37.85000,-5.95319,-4.96984
37.90000,-5.96159,-4.96657
37.95000,-5.96999,-4.96016
38.00000,-5.97812,-4.96456
38.05000,-5.98625,-4.94754
38.10000,-5.99479,-4.95800
38.15000,-6.00332,-4.94139
38.20000,-6.01145,-4.95119
38.25000,-6.01985,-4.93303
38.30000,-6.02852,-4.94306
38.35000,-6.03665,-4.92531
38.40000,-6.04479,-4.93169
38.45000,-6.05332,-4.91294
38.50000,-6.06172,-4.92400
38.55000,-6.06985,-4.90249
38.60000,-6.07812,-4.90815
38.65000,-6.08665,-4.89842
38.70000,-6.09478,-4.89833
38.75000,-6.10305,-4.88897
38.80000,-6.11159,-4.88769
38.85000,-6.11985,-4.88368
38.90000,-6.12812,-4.87732
38.95000,-6.13652,-4.87942
39.00000,-6.14478,-4.86439
39.05000,-6.15318,-4.87548
39.10000,-6.16145,-4.85528
39.15000,-6.16985,-4.86722
39.20000,-6.17839,-4.84860
39.25000,-6.18665,-4.85646
39.30000,-6.19478,-4.84116
39.35000,-6.20332,-4.84612
39.40000,-6.21172,-4.83328
39.45000,-6.21972,-4.83587
39.50000,-6.22812,-4.82522
39.55000,-6.23665,-4.82525
39.60000,-6.24465,-4.81425
39.65000,-6.25292,-4.82232
39.70000,-6.26158,-4.80092
39.75000,-6.26972,-4.81389
39.80000,-6.27798,-4.79961
39.85000,-6.28652,-4.80775
39.90000,-6.29492,-4.79149
39.95000,-6.30318,-4.80044
40.00000,-6.31158,-4.79567
40.05000,-6.31985,-4.79494
40.10000,-6.32825,-4.78915
40.15000,-6.33665,-4.79220
40.20000,-6.34465,-4.78774
40.25000,-6.35332,-4.78871
40.30000,-6.36158,-4.78537
40.35000,-6.36972,-4.78623
40.40000,-6.37812,-4.78334
40.45000,-6.38652,-4.77764
40.50000,-6.39465,-4.78048
40.55000,-6.40318,-4.76953
40.60000,-6.41185,-4.77836
40.65000,-6.41985,-4.76304
40.70000,-6.42812,-4.77345
40.75000,-6.43665,-4.75966
40.80000,-6.44492,-4.76939
40.85000,-6.45318,-4.75690
40.90000,-6.46172,-4.76662
40.95000,-6.47012,-4.75022
41.00000,-6.47825,-4.76539
41.05000,-6.48665,-4.74723
41.10000,-6.49492,-4.75669
41.15000,-6.50332,-4.74724
41.20000,-6.51158,-4.75038
41.25000,-6.51972,-4.73946
41.30000,-6.52825,-4.75679
41.35000,-6.53665,-4.73142
41.40000,-6.54478,-4.75222
41.45000,-6.55318,-4.73369
41.50000,-6.56172,-4.75009
41.55000,-6.56998,-4.73138
41.60000,-6.57825,-4.74563
41.65000,-6.58665,-4.73263
41.70000,-6.59505,-4.74023
41.75000,-6.60318,-4.72857
41.80000,-6.61145,-4.73985
41.85000,-6.61998,-4.72634
41.90000,-6.62812,-4.74112
41.95000,-6.63638,-4.72390
42.00000,-6.64478,-4.73415
42.05000,-6.65305,-4.73041
42.10000,-6.66132,-4.72965
42.15000,-6.66972,-4.72918
42.20000,-6.67825,-4.72887
42.25000,-6.68665,-4.73118
42.30000,-6.69492,-4.72609
42.35000,-6.70318,-4.73030
42.40000,-6.71172,-4.72438
42.45000,-6.71985,-4.73089
42.50000,-6.72812,-4.72208
42.55000,-6.73665,-4.73052
42.60000,-6.74492,-4.72217
42.65000,-6.75305,-4.72646
42.70000,-6.76158,-4.72113
42.75000,-6.76998,-4.72246
42.80000,-6.77798,-4.71779
42.85000,-6.78625,-4.71827
42.90000,-6.79492,-4.71439
42.95000,-6.80318,-4.71695
43.00000,-6.81145,-4.71178
43.05000,-6.81998,-4.71145
43.10000,-6.82825,-4.71052
43.15000,-6.83665,-4.70682
43.20000,-6.84505,-4.70704
43.25000,-6.85332,-4.70478
43.30000,-6.86172,-4.69754
43.35000,-6.86998,-4.69057
43.40000,-6.87812,-4.68610
43.45000,-6.88665,-4.68100
43.50000,-6.89492,-4.67864
43.55000,-6.90305,-4.67724
43.60000,-6.91158,-4.66940
43.65000,-6.91985,-4.67071
43.70000,-6.92798,-4.66178
43.75000,-6.93652,-4.66728
43.80000,-6.94505,-4.65843
43.85000,-6.95318,-4.67255
43.90000,-6.96145,-4.65492
43.95000,-6.97012,-4.66978
44.00000,-6.97838,-4.65763
44.05000,-6.98652,-4.66410
44.10000,-6.99505,-4.65833
44.15000,-7.00345,-4.66023
44.20000,-7.01158,-4.64555
44.25000,-7.01998,-4.65704
44.30000,-7.02838,-4.64675
44.35000,-7.03665,-4.65067
44.40000,-7.04492,-4.61616
44.45000,-7.05318,-4.62733
44.50000,-7.06158,-4.61529
44.55000,-7.06998,-4.62085
44.60000,-7.07825,-4.61452
44.65000,-7.08652,-4.61346
44.70000,-7.09518,-4.58044
44.75000,-7.10345,-4.58153
44.80000,-7.11158,-4.57326
44.85000,-7.11998,-4.57820
44.90000,-7.12838,-4.57549
44.95000,-7.13652,-4.57624
45.00000,-7.14478,-4.57098
45.05000,-7.15332,-4.56922
45.10000,-7.16145,-4.56093
45.15000,-7.16972,-4.55245
45.20000,-7.17812,-4.55529
45.25000,-7.18638,-4.55196
45.30000,-7.19465,-4.55825
45.35000,-7.20305,-4.55006
45.40000,-7.21158,-4.56050
45.45000,-7.21998,-4.55261
45.50000,-7.22825,-4.55632
45.55000,-7.23652,-4.55749
45.60000,-7.24505,-4.55600
45.65000,-7.25332,-4.55289
45.70000,-7.26158,-4.55571
45.75000,-7.27012,-4.55084
45.80000,-7.27838,-4.55670
45.85000,-7.28638,-4.55093
45.90000,-7.29478,-4.55738
45.95000,-7.30332,-4.55056
46.00000,-7.31118,-4.56030
46.05000,-7.31958,-4.55370
46.10000,-7.32825,-4.55722
46.15000,-7.33652,-4.56082
46.20000,-7.34478,-4.56181
46.25000,-7.35332,-4.55980
46.30000,-7.36172,-4.56459
46.35000,-7.36985,-4.56283
46.40000,-7.37825,-4.56623
46.45000,-7.38652,-4.56320
46.50000,-7.39492,-4.56965
46.55000,-7.40332,-4.56534
46.60000,-7.41145,-4.57170
46.65000,-7.42012,-4.56699
46.70000,-7.42838,-4.56922
46.75000,-7.43638,-4.57168
46.80000,-7.44478,-4.56919
46.85000,-7.45318,-4.56846
46.90000,-7.46132,-4.57200
46.95000,-7.46972,-4.57214
47.00000,-7.47838,-4.57350
47.05000,-7.48665,-4.57307
47.10000,-7.49478,-4.58014
47.15000,-7.50345,-4.57097
47.20000,-7.51171,-4.58155
47.25000,-7.51985,-4.57654
47.30000,-7.52838,-4.57623
47.35000,-7.53678,-4.57936
47.40000,-7.54491,-4.57880
47.45000,-7.55331,-4.57686
47.50000,-7.56158,-4.57970
47.55000,-7.56998,-4.57714
47.60000,-7.57825,-4.57904
47.65000,-7.58651,-4.57592
47.70000,-7.59491,-4.57856
47.75000,-7.60331,-4.57502
47.80000,-7.61158,-4.57799
47.85000,-7.61985,-4.57252
47.90000,-7.62838,-4.57460
47.95000,-7.63665,-4.57229
48.00000,-7.64478,-4.57359
48.05000,-7.65331,-4.56546
48.10000,-7.66171,-4.57419
48.15000,-7.66971,-4.56242
48.20000,-7.67811,-4.56903
48.25000,-7.68665,-4.56036
48.30000,-7.69478,-4.56780
48.35000,-7.70305,-4.55696
48.40000,-7.71145,-4.56721
48.45000,-7.71971,-4.55380
48.50000,-7.72798,-4.56417
48.55000,-7.73651,-4.55385
48.60000,-7.74491,-4.56047
48.65000,-7.75318,-4.54915
48.70000,-7.76158,-4.56015
48.75000,-7.76985,-4.54617
48.80000,-7.77838,-4.55458
48.85000,-7.78651,-4.54635
48.90000,-7.79465,-4.55040
48.95000,-7.80318,-4.54172
49.00000,-7.81171,-4.54599
49.05000,-7.81971,-4.54167
49.10000,-7.82811,-4.53941
49.15000,-7.83665,-4.54015
49.20000,-7.84465,-4.53401
49.25000,-7.85291,-4.53710
49.30000,-7.86158,-4.53174
49.35000,-7.86985,-4.53084
49.40000,-7.87811,-4.52937
49.45000,-7.88665,-4.52953
49.50000,-7.89491,-4.52306
49.55000,-7.90331,-4.52883
49.60000,-7.91171,-4.51999
49.65000,-7.91998,-4.52634
49.70000,-7.92838,-4.51586
49.75000,-7.93678,-4.52430
49.80000,-7.94478,-4.51266
49.85000,-7.95331,-4.51989
49.90000,-7.96158,-4.50975
49.95000,-7.96971,-4.51542
50.00000,-7.97811,-4.50720
50.05000,-7.98665,-4.51256
50.10000,-7.99465,-4.50264
50.15000,-8.00305,-4.50842
50.20000,-8.01185,-4.49994
50.25000,-8.01998,-4.50414
50.30000,-8.02811,-4.49588
50.35000,-8.03665,-4.49643
50.40000,-8.04491,-4.49048
50.45000,-8.05318,-4.49203
50.50000,-8.06158,-4.48420
50.55000,-8.07011,-4.48234
50.60000,-8.07825,-4.48255
50.65000,-8.08651,-4.47543
50.70000,-8.09478,-4.47325
50.75000,-8.10331,-4.46988
50.80000,-8.11158,-4.46683
50.85000,-8.11971,-4.46203
50.90000,-8.12825,-4.45760
50.95000,-8.13665,-4.45623
51.00000,-8.14478,-4.45323
51.05000,-8.15318,-4.44923
51.10000,-8.16185,-4.44470
51.15000,-8.16998,-4.44761
51.20000,-8.17811,-4.43718
51.25000,-8.18665,-4.43669
51.30000,-8.19518,-4.43342
51.35000,-8.20318,-4.43114
51.40000,-8.21145,-4.42316
51.45000,-8.22011,-4.42555
51.50000,-8.22811,-4.41683
51.55000,-8.23638,-4.41723
51.60000,-8.24491,-4.41157
51.65000,-8.25318,-4.41109
51.70000,-8.26145,-4.40136
51.75000,-8.26971,-4.40882
51.80000,-8.27811,-4.39764
51.85000,-8.28651,-4.39543
51.90000,-8.29478,-4.39931
51.95000,-8.30305,-4.39143
52.00000,-8.31171,-4.39340
52.05000,-8.31998,-4.38691
52.10000,-8.32811,-4.39154
52.15000,-8.33665,-4.38473
52.20000,-8.34505,-4.38686
52.25000,-8.35305,-4.37947
52.30000,-8.36158,-4.38710
52.35000,-8.36998,-4.37385
52.40000,-8.37798,-4.38448
52.45000,-8.38625,-4.37211
52.50000,-8.39491,-4.38313
52.55000,-8.40318,-4.37201
52.60000,-8.41145,-4.38199
52.65000,-8.41998,-4.37077
52.70000,-8.42825,-4.37968
52.75000,-8.43651,-4.36976
52.80000,-8.44491,-4.37733
52.85000,-8.45318,-4.36465
52.90000,-8.46158,-4.37814
52.95000,-8.46998,-4.36108
53.00000,-8.47798,-4.37429
53.05000,-8.48651,-4.36330
53.10000,-8.49491,-4.36829
53.15000,-8.50305,-4.36344
53.20000,-8.51158,-4.36903
53.25000,-8.51998,-4.36056
53.30000,-8.52798,-4.36734
53.35000,-8.53638,-4.36063
53.40000,-8.54518,-4.36693
53.45000,-8.55331,-4.36307
53.50000,-8.56158,-4.36929
53.55000,-8.57011,-4.36170
53.60000,-8.57838,-4.36879
53.65000,-8.58665,-4.36998
53.70000,-8.59505,-4.36374
53.75000,-8.60331,-4.37260
53.80000,-8.61158,-4.36962
53.85000,-8.61985,-4.37008
53.90000,-8.62825,-4.37209
53.95000,-8.63665,-4.37376
54.00000,-8.64491,-4.37594
54.05000,-8.65305,-4.37631
54.10000,-8.66145,-4.37719
54.15000,-8.66998,-4.38063
54.20000,-8.67811,-4.37927
54.25000,-8.68651,-4.38582
54.30000,-8.69505,-4.38229
54.35000,-8.70331,-4.38314
54.40000,-8.71131,-4.38904
54.45000,-8.71998,-4.38443
54.50000,-8.72851,-4.38921
54.55000,-8.73665,-4.38866
54.60000,-8.74491,-4.39182
54.65000,-8.75345,-4.38995
54.70000,-8.76145,-4.39169
54.75000,-8.76971,-4.39201
54.80000,-8.77825,-4.38988
54.85000,-8.78651,-4.39528
54.90000,-8.79465,-4.39229
54.95000,-8.80318,-4.39058
55.00000,-8.81144,-4.39820
55.05000,-8.81998,-4.39251
55.10000,-8.82825,-4.39701
55.15000,-8.83651,-4.39410
55.20000,-8.84505,-4.39814
55.25000,-8.85331,-4.39623
55.30000,-8.86144,-4.39718
55.35000,-8.86998,-4.39858
55.40000,-8.87838,-4.39886
55.45000,-8.88638,-4.39641
55.50000,-8.89478,-4.40457
55.55000,-8.90331,-4.39211
55.60000,-8.91144,-4.40376
55.65000,-8.91971,-4.39854
55.70000,-8.92824,-4.40073
55.75000,-8.93651,-4.39694
55.80000,-8.94478,-4.40508
55.85000,-8.95331,-4.39846
55.90000,-8.96158,-4.40404
55.95000,-8.96998,-4.40260
56.00000,-8.97838,-4.40710
56.05000,-8.98664,-4.40146
56.10000,-8.99518,-4.40756
56.15000,-9.00344,-4.40688
56.20000,-9.01144,-4.40475
56.25000,-9.02011,-4.40750
56.30000,-9.02838,-4.40748
56.35000,-9.03638,-4.40719
56.40000,-9.04478,-4.40442
56.45000,-9.05318,-4.40663
56.50000,-9.06131,-4.40659
56.55000,-9.06985,-4.40824
56.60000,-9.07851,-4.40445
56.65000,-9.08664,-4.41069
56.70000,-9.09478,-4.40791
56.75000,-9.10331,-4.41031
56.80000,-9.11171,-4.40694
56.85000,-9.11984,-4.41179
56.90000,-9.12824,-4.40914
56.95000,-9.13664,-4.40925
57.00000,-9.14491,-4.41119
57.05000,-9.15318,-4.41030
57.10000,-9.16158,-4.40974
57.15000,-9.16998,-4.41078
57.20000,-9.17824,-4.41031
57.25000,-9.18638,-4.41047
57.30000,-9.19478,-4.40840
57.35000,-9.20331,-4.41095
57.40000,-9.21144,-4.41225
57.45000,-9.21984,-4.40774
57.50000,-9.22838,-4.41369
57.55000,-9.23678,-4.41306
57.60000,-9.24491,-4.40883
57.65000,-9.25331,-4.41467
57.70000,-9.26171,-4.41270
57.75000,-9.26984,-4.41154
57.80000,-9.27811,-4.41252
57.85000,-9.28651,-4.41542
57.90000,-9.29464,-4.41325
57.95000,-9.30304,-4.41598
58.00000,-9.31144,-4.41710
58.05000,-9.31984,-4.41734
58.10000,-9.32811,-4.42195
58.15000,-9.33638,-4.42453
58.20000,-9.34478,-4.42246
58.25000,-9.35331,-4.42925
58.30000,-9.36158,-4.42932
58.35000,-9.36971,-4.43041
58.40000,-9.37824,-4.43161
58.45000,-9.38664,-4.43564
58.50000,-9.39478,-4.43792
58.55000,-9.40331,-4.43896
58.60000,-9.41184,-4.44528
58.65000,-9.41984,-4.44465
58.70000,-9.42811,-4.45090
58.75000,-9.43664,-4.44993
58.80000,-9.44464,-4.45714
58.85000,-9.45291,-4.45674
58.90000,-9.46144,-4.46371
58.95000,-9.46984,-4.46600
59.00000,-9.47811,-4.47154
59.05000,-9.48651,-4.47357
59.10000,-9.49491,-4.48085
59.15000,-9.50318,-4.48239
59.20000,-9.51158,-4.48722
59.25000,-9.51984,-4.49116
59.30000,-9.52838,-4.49434
59.35000,-9.53678,-4.50070
59.40000,-9.54478,-4.50092
59.45000,-9.55331,-4.50560
59.50000,-9.56171,-4.50880
59.55000,-9.56958,-4.51209
59.60000,-9.57811,-4.51412
59.65000,-9.58664,-4.51961
59.70000,-9.59464,-4.52000
59.75000,-9.60291,-4.52694
59.80000,-9.61171,-4.52323
59.85000,-9.61984,-4.54053
59.90000,-9.62811,-4.52717
59.95000,-9.63664,-4.54481
60.00000,-9.64504,-4.53949
60.05000,-9.65318,-4.55159
60.10000,-9.66171,-4.54264
60.15000,-9.67011,-4.55944
60.20000,-9.67824,-4.55207
60.25000,-9.68664,-4.56328
60.30000,-9.69478,-4.55585
60.35000,-9.70318,-4.57502
60.40000,-9.71158,-4.55524
60.45000,-9.71971,-4.58789
60.50000,-9.72824,-4.55946
60.55000,-9.73664,-4.59362
60.60000,-9.74491,-4.57166
60.65000,-9.75318,-4.59568
60.70000,-9.76171,-4.58071
60.75000,-9.76998,-4.60292
60.80000,-9.77811,-4.58644
60.85000,-9.78664,-4.60729
60.90000,-9.79518,-4.59597
60.95000,-9.80318,-4.60931
61.00000,-9.81144,-4.60598
61.05000,-9.81998,-4.61047
61.10000,-9.82811,-4.61138
61.15000,-9.83638,-4.61728
61.20000,-9.84491,-4.61604
61.25000,-9.85318,-4.61966
61.30000,-9.86131,-4.62361
61.35000,-9.86971,-4.62328
61.40000,-9.87811,-4.62795
61.45000,-9.88651,-4.63208
61.50000,-9.89478,-4.63141
61.55000,-9.90318,-4.63866
61.60000,-9.91171,-4.63982
61.65000,-9.91998,-4.64120
61.70000,-9.92811,-4.64682
61.75000,-9.93664,-4.64801
61.80000,-9.94491,-4.64962
61.85000,-9.95304,-4.65650
61.90000,-9.96144,-4.65238
61.95000,-9.96998,-4.66269
62.00000,-9.97798,-4.65792
62.05000,-9.98624,-4.66903
62.10000,-9.99491,-4.66165
62.15000,-10.00331,-4.67901
62.20000,-10.01144,-4.66857
62.25000,-10.01984,-4.68116
62.30000,-10.02811,-4.67929
62.35000,-10.03651,-4.68477
62.40000,-10.04491,-4.68707
62.45000,-10.05318,-4.69452
62.50000,-10.06171,-4.69128
62.55000,-10.07011,-4.70418
62.60000,-10.07811,-4.69799
62.65000,-10.08664,-4.70981
62.70000,-10.09504,-4.70195
62.75000,-10.10304,-4.72198
62.80000,-10.11131,-4.70476
62.85000,-10.11984,-4.72397
62.90000,-10.12784,-4.71927
62.95000,-10.13624,-4.72665
63.00000,-10.14504,-4.72598
63.05000,-10.15331,-4.73828
63.10000,-10.16144,-4.73287
63.15000,-10.16998,-4.74117
63.20000,-10.17838,-4.74152
63.25000,-10.18664,-4.74980
63.30000,-10.19504,-4.74528
63.35000,-10.20344,-4.75822
63.40000,-10.21157,-4.75086
63.45000,-10.21998,-4.76387
63.50000,-10.22811,-4.75787
63.55000,-10.23664,-4.76672
63.60000,-10.24504,-4.76831
63.65000,-10.25318,-4.77295
63.70000,-10.26157,-4.77149
63.75000,-10.26998,-4.77984
63.80000,-10.27824,-4.78063
63.85000,-10.28651,-4.78511
63.90000,-10.29518,-4.78754
63.95000,-10.30344,-4.79444
64.00000,-10.31157,-4.79397
64.05000,-10.31998,-4.79912
64.10001,-10.32851,-4.80179
64.15000,-10.33651,-4.80525
64.20000,-10.34477,-4.80775
64.25000,-10.35331,-4.81157
64.30000,-10.36144,-4.81538
64.35001,-10.36971,-4.81643
64.40000,-10.37811,-4.82232
64.45000,-10.38651,-4.82418
64.50000,-10.39477,-4.82860
64.55000,-10.40317,-4.83281
64.60001,-10.41157,-4.83673
64.65000,-10.41998,-4.83911
64.70000,-10.42824,-4.84527
64.75000,-10.43651,-4.84634
64.80000,-10.44504,-4.85134
64.85001,-10.45331,-4.85486
64.90000,-10.46144,-4.85731
64.95000,-10.46997,-4.85828
65.00000,-10.47837,-4.86426
65.05000,-10.48651,-4.86390
65.10001,-10.49477,-4.86696
65.15000,-10.50317,-4.86846
65.20000,-10.51131,-4.86922
65.25000,-10.51957,-4.87156
65.30000,-10.52824,-4.87354
65.35001,-10.53651,-4.87560
65.40000,-10.54477,-4.87853
65.45000,-10.55331,-4.87964
65.50000,-10.56157,-4.88158
65.55000,-10.56997,-4.88280
65.60001,-10.57837,-4.88504
65.65000,-10.58664,-4.88704
65.70001,-10.59504,-4.88800
65.75000,-10.60331,-4.89199
65.80000,-10.61131,-4.89299
65.85001,-10.61984,-4.89573
65.90000,-10.62824,-4.89866
65.95001,-10.63624,-4.90131
66.00000,-10.64464,-4.89992
66.05000,-10.65331,-4.90641
66.10001,-10.66131,-4.90684
66.15000,-10.66971,-4.91073
66.20001,-10.67851,-4.91183
66.25000,-10.68651,-4.91770
66.30000,-10.69464,-4.91573
66.35001,-10.70331,-4.91964
66.40000,-10.71171,-4.92350
66.45001,-10.71997,-4.92659
66.50000,-10.72851,-4.92939
66.55000,-10.73691,-4.93441
66.60001,-10.74504,-4.93498
66.65000,-10.75331,-4.93933
66.70001,-10.76157,-4.93862
66.75000,-10.77011,-4.94526
66.80000,-10.77837,-4.94638
66.85001,-10.78637,-4.95241
66.90000,-10.79491,-4.95065
66.95001,-10.80344,-4.95898
67.00000,-10.81157,-4.96106
67.05000,-10.81984,-4.96508
67.10001,-10.82837,-4.96657
67.15000,-10.83664,-4.97379
67.20001,-10.84477,-4.97368
67.25000,-10.85331,-4.98083
67.30000,-10.86171,-4.98340
67.35001,-10.86971,-4.98902
67.40000,-10.87811,-4.99053
67.45001,-10.88664,-4.99788
67.50000,-10.89464,-4.99962
67.55000,-10.90304,-5.00597
67.60001,-10.91157,-5.01035
67.65000,-10.91984,-5.01570
67.70001,-10.92824,-5.02016
67.75000,-10.93651,-5.02637
67.80000,-10.94491,-5.02895
67.85001,-10.95331,-5.03507
67.90000,-10.96144,-5.04044
67.95001,-10.96971,-5.04386
68.00000,-10.97837,-5.05102
68.05000,-10.98664,-5.05629
68.10001,-10.99477,-5.06125
68.15000,-11.00317,-5.06405
68.20001,-11.01157,-5.07234
68.25000,-11.01957,-5.07406
68.30000,-11.02811,-5.08041
68.35001,-11.03664,-5.08518
68.40000,-11.04464,-5.09110
68.45001,-11.05291,-5.09411
68.50000,-11.06157,-5.09948
68.55000,-11.06984,-5.10534
68.60001,-11.07811,-5.10921
68.65000,-11.08664,-5.11473
68.70001,-11.09504,-5.11987
68.75000,-11.10344,-5.12448
68.80000,-11.11171,-5.12818
68.85001,-11.11997,-5.13175
68.90000,-11.12837,-5.13655
68.95001,-11.13677,-5.14035
69.00000,-11.14477,-5.14497
69.05000,-11.15331,-5.14755
69.10001,-11.16171,-5.15329
69.15000,-11.16971,-5.15649
69.20001,-11.17797,-5.15869
69.25000,-11.18651,-5.16464
69.30000,-11.19464,-5.16774
69.35001,-11.20304,-5.17263
69.40000,-11.21184,-5.17846
69.45001,-11.21997,-5.18283
69.50000,-11.22824,-5.18682
69.55000,-11.23691,-5.19088
69.60001,-11.24517,-5.19598
69.65000,-11.25331,-5.19837
69.70001,-11.26184,-5.20179
69.75000,-11.27011,-5.20619
69.80000,-11.27824,-5.20689
69.85001,-11.28651,-5.21222
69.90000,-11.29464,-5.21384
69.95001,-11.30317,-5.21835
70.00000,-11.31157,-5.22230
70.05000,-11.31971,-5.22690
70.10001,-11.32811,-5.22887
70.15000,-11.33664,-5.23350
70.20001,-11.34477,-5.23830
70.25000,-11.35304,-5.24005
70.30000,-11.36157,-5.24414
70.35001,-11.36984,-5.24852
70.40000,-11.37811,-5.25149
70.45001,-11.38651,-5.25535
70.50000,-11.39517,-5.26001
70.55000,-11.40331,-5.26327
70.60001,-11.41157,-5.26590
70.65000,-11.42011,-5.27026
70.70001,-11.42824,-5.27226
70.75000,-11.43651,-5.27555
70.80000,-11.44491,-5.27707
70.85001,-11.45317,-5.28081
70.90000,-11.46144,-5.28240
70.95001,-11.46971,-5.28698
71.00000,-11.47811,-5.28784
71.05000,-11.48651,-5.29406
71.10001,-11.49477,-5.29616
71.15000,-11.50304,-5.29923
71.20001,-11.51157,-5.30169
71.25000,-11.51984,-5.30832
71.30000,-11.52811,-5.30932
71.35001,-11.53664,-5.31423
71.40000,-11.54504,-5.31727
71.45001,-11.55304,-5.32082
71.50000,-11.56157,-5.32116
71.55000,-11.56997,-5.32645
71.60001,-11.57797,-5.32778
71.65000,-11.58637,-5.33134
71.70001,-11.59491,-5.33474
71.75000,-11.60317,-5.33889
71.80000,-11.61144,-5.34196
71.85001,-11.61997,-5.34520
71.90000,-11.62824,-5.34891
71.95001,-11.63664,-5.35013
72.00000,-11.64504,-5.35531
72.05000,-11.65331,-5.35581
72.10001,-11.66170,-5.35963
72.15000,-11.66997,-5.36134
72.20001,-11.67811,-5.36456
72.25000,-11.68664,-5.36483
72.30000,-11.69504,-5.36899
72.35001,-11.70304,-5.36805
72.40000,-11.71144,-5.37106
72.45001,-11.71997,-5.37235
72.50000,-11.72797,-5.37571
72.55000,-11.73637,-5.37367
72.60001,-11.74517,-5.37889
72.65000,-11.75317,-5.37950
72.70001,-11.76144,-5.38058
72.75000,-11.77010,-5.38084
72.80000,-11.77837,-5.38410
72.85001,-11.78664,-5.38220
72.90000,-11.79504,-5.38460
72.95001,-11.80344,-5.38426
73.00000,-11.81157,-5.38499
73.05000,-11.81997,-5.38433
73.10001,-11.82824,-5.38760
73.15000,-11.83664,-5.38558
73.20001,-11.84477,-5.38794
73.25000,-11.85304,-5.38652
73.30000,-11.86144,-5.38871
73.35001,-11.86984,-5.38767
73.40000,-11.87810,-5.39226
73.45001,-11.88650,-5.38842
73.50000,-11.89504,-5.39280
73.55000,-11.90344,-5.39263
73.60001,-11.91157,-5.39348
73.65000,-11.92010,-5.39248
73.70001,-11.92850,-5.39576
73.75000,-11.93650,-5.39284
73.80000,-11.94477,-5.39486
73.85001,-11.95317,-5.39294
73.90000,-11.96117,-5.39380
73.95001,-11.96957,-5.39243
74.00000,-11.97810,-5.39573
74.05000,-11.98637,-5.39477
74.10001,-11.99464,-5.39570
74.15000,-12.00304,-5.39730
74.20001,-12.01144,-5.39683
74.25000,-12.01984,-5.39840
74.30000,-12.02810,-5.40013
74.35001,-12.03637,-5.40002
74.40000,-12.04490,-5.40208
74.45001,-12.05330,-5.40507
74.50000,-12.06144,-5.40601
74.55000,-12.06997,-5.40552
74.60001,-12.07837,-5.40995
74.65000,-12.08637,-5.40837
74.70001,-12.09490,-5.41043
74.75000,-12.10330,-5.41039
74.80000,-12.11130,-5.41331
74.85001,-12.11957,-5.41241
74.90000,-12.12810,-5.41461
74.95001,-12.13650,-5.41702
75.00000,-12.14490,-5.42031
75.05000,-12.15330,-5.42130
75.10001,-12.16157,-5.42402
75.15000,-12.16997,-5.42492
75.20001,-12.17837,-5.42842
75.25000,-12.18664,-5.42911
75.30000,-12.19504,-5.43236
75.35001,-12.20344,-5.43411
75.40000,-12.21144,-5.43649
75.45001,-12.21997,-5.43540
75.50000,-12.22837,-5.44020
75.55000,-12.23637,-5.43952
75.60001,-12.24477,-5.44148
75.65000,-12.25330,-5.44293
75.70001,-12.26144,-5.44665
75.75000,-12.26984,-5.44546
75.80000,-12.27837,-5.44895
75.85001,-12.28650,-5.44982
75.90000,-12.29477,-5.45151
75.95001,-12.30344,-5.45150
76.00000,-12.31170,-5.45518
76.05000,-12.31984,-5.45373
76.10001,-12.32837,-5.45699
76.15000,-12.33664,-5.45653
76.20001,-12.34490,-5.45858
76.25000,-12.35317,-5.45967
76.30000,-12.36144,-5.46214
76.35001,-12.36984,-5.46250
76.40000,-12.37824,-5.46600
76.45001,-12.38637,-5.46717
76.50000,-12.39477,-5.46873
76.55000,-12.40330,-5.47034
76.60001,-12.41157,-5.47236
76.65000,-12.41984,-5.47107
76.70001,-12.42837,-5.47715
76.75000,-12.43664,-5.47418
76.80000,-12.44477,-5.47984
76.85001,-12.45330,-5.47698
76.90000,-12.46170,-5.48300
76.95001,-12.46984,-5.47890
77.00000,-12.47810,-5.48557
77.05000,-12.48664,-5.48275
77.10001,-12.49477,-5.48772
77.15000,-12.50304,-5.48446
77.20001,-12.51144,-5.49075
77.25000,-12.51970,-5.48689
77.30000,-12.52797,-5.49025
77.35001,-12.53650,-5.48951
77.40000,-12.54477,-5.49217
77.45001,-12.55330,-5.48920
77.50000,-12.56170,-5.49639
77.55000,-12.56984,-5.48994
77.60001,-12.57837,-5.49399
77.65000,-12.58677,-5.49270
77.70001,-12.59490,-5.49364
77.75000,-12.60344,-5.48948
77.80000,-12.61170,-5.49314
77.85001,-12.61970,-5.49036
77.90000,-12.62810,-5.48961
77.95001,-12.63650,-5.48869
78.00000,-12.64464,-5.49101
78.05000,-12.65304,-5.48922
78.10001,-12.66157,-5.49166
78.15000,-12.66984,-5.49127
78.20001,-12.67810,-5.49211
78.25000,-12.68650,-5.49123
78.30000,-12.69490,-5.49183
78.35001,-12.70330,-5.49202
78.40000,-12.71170,-5.49436
78.45001,-12.72010,-5.49268
78.50000,-12.72837,-5.49531
78.55000,-12.73677,-5.49049
78.60001,-12.74477,-5.49374
78.65000,-12.75344,-5.48792
78.70001,-12.76170,-5.49101
78.75000,-12.76984,-5.48898
78.80000,-12.77824,-5.48832
78.85001,-12.78664,-5.48858
78.90000,-12.79477,-5.49001
78.95001,-12.80317,-5.48721
79.00000,-12.81170,-5.49239
79.05000,-12.81997,-5.49282
79.10001,-12.82824,-5.49406
79.15000,-12.83677,-5.49414
79.20001,-12.84504,-5.49684
79.25000,-12.85330,-5.49674
79.30000,-12.86170,-5.49783
79.35001,-12.87010,-5.49930
79.40000,-12.87824,-5.49992
79.45001,-12.88664,-5.49834
79.50000,-12.89490,-5.50188
79.55000,-12.90330,-5.49827
79.60001,-12.91157,-5.50033
79.65000,-12.91970,-5.49982
79.70001,-12.92824,-5.49795
79.75000,-12.93663,-5.50188
79.80000,-12.94490,-5.50164
79.85001,-12.95317,-5.50058
79.90000,-12.96170,-5.50333
79.95001,-12.96997,-5.50225
80.00000,-12.97810,-5.50514
80.05000,-12.98663,-5.50324
80.10001,-12.99504,-5.50974
80.15000,-13.00317,-5.50633
80.20001,-13.01144,-5.51016
80.25000,-13.01997,-5.50939
80.30000,-13.02810,-5.51121
80.35001,-13.03637,-5.50896
80.40000,-13.04490,-5.51343
80.45001,-13.05303,-5.51144
80.50001,-13.06130,-5.51605
80.55000,-13.06970,-5.51196
80.60001,-13.07810,-5.51841
80.65000,-13.08650,-5.51425
80.70001,-13.09477,-5.51977
80.75001,-13.10317,-5.51478
80.80000,-13.11170,-5.52024
80.85001,-13.11997,-5.51997
80.90000,-13.12810,-5.52077
80.95001,-13.13650,-5.51765
81.00001,-13.14490,-5.52185
81.05000,-13.15303,-5.51750
81.10001,-13.16143,-5.52366
81.15000,-13.16997,-5.51780
81.20001,-13.17797,-5.52438
81.25001,-13.18637,-5.51710
81.30000,-13.19490,-5.52313
81.35001,-13.20317,-5.51938
81.40000,-13.21143,-5.52106
81.45001,-13.21997,-5.51634
81.50001,-13.22837,-5.52161
81.55000,-13.23663,-5.51620
81.60001,-13.24503,-5.52036
81.65000,-13.25330,-5.51523
81.70001,-13.26170,-5.52221
81.75001,-13.27010,-5.51513
81.80000,-13.27810,-5.52379
81.85001,-13.28663,-5.51316
81.90000,-13.29490,-5.52360
81.95001,-13.30303,-5.51552
82.00001,-13.31143,-5.52143
82.05000,-13.31997,-5.51929
82.10001,-13.32797,-5.52331
82.15000,-13.33637,-5.51918
82.20001,-13.34503,-5.52611
82.25001,-13.35303,-5.52105
82.30000,-13.36130,-5.52673
82.35001,-13.37010,-5.52347
82.40000,-13.37837,-5.53548
82.45001,-13.38663,-5.52868
82.50001,-13.39503,-5.53642
82.55000,-13.40343,-5.53671
82.60001,-13.41170,-5.53800
82.65000,-13.41997,-5.53728
82.70001,-13.42823,-5.54627
82.75001,-13.43663,-5.54014
82.80000,-13.44490,-5.55205
82.85001,-13.45317,-5.54444
82.90000,-13.46143,-5.55651
82.95001,-13.46983,-5.55206
83.00001,-13.47810,-5.55952
83.05000,-13.48637,-5.56289
83.10001,-13.49503,-5.56457
83.15000,-13.50330,-5.57345
83.20001,-13.51143,-5.57098
83.25001,-13.51997,-5.57902
83.30000,-13.52837,-5.58174
83.35001,-13.53650,-5.58604
83.40000,-13.54477,-5.58893
83.45001,-13.55330,-5.59560
83.50001,-13.56143,-5.59622
83.55000,-13.56970,-5.60651
83.60001,-13.57810,-5.60505
83.65000,-13.58637,-5.61559
83.70001,-13.59463,-5.61586
83.75001,-13.60303,-5.62721
83.80000,-13.61157,-5.62644
83.85001,-13.61997,-5.63643
83.90000,-13.62823,-5.63939
83.95001,-13.63650,-5.64671
84.00001,-13.64503,-5.65255
84.05000,-13.65330,-5.66183
84.10001,-13.66143,-5.66594
84.15000,-13.66997,-5.67525
84.20001,-13.67837,-5.68083
84.25001,-13.68637,-5.67212
84.30000,-13.69477,-5.67167
84.35001,-13.70330,-5.68004
84.40000,-13.71143,-5.69241
84.45001,-13.71970,-5.69973
84.50001,-13.72823,-5.70970
84.55000,-13.73650,-5.71712
84.60001,-13.74477,-5.72715
84.65000,-13.75317,-5.73003
84.70001,-13.76157,-5.74223
84.75001,-13.76997,-5.74648
84.80000,-13.77823,-5.75768
84.85001,-13.78650,-5.76292
84.90000,-13.79503,-5.77027
84.95001,-13.80330,-5.78266
85.00001,-13.81143,-5.78703
85.05000,-13.81997,-5.79500
85.10001,-13.82837,-5.80494
85.15000,-13.83637,-5.81231
85.20001,-13.84477,-5.81676
85.25001,-13.85330,-5.82757
85.30000,-13.86130,-5.83508
85.35001,-13.86970,-5.84377
85.40000,-13.87850,-5.84945
85.45001,-13.88663,-5.86485
85.50001,-13.89477,-5.86684
85.55000,-13.90330,-5.87710
85.60001,-13.91170,-5.88597
85.65000,-13.91997,-5.89364
85.70001,-13.92837,-5.90056
85.75001,-13.93677,-5.91319
85.80000,-13.94490,-5.91275
85.85001,-13.95330,-5.93168
85.90000,-13.96157,-5.93014
85.95001,-13.96997,-5.94441
86.00001,-13.97823,-5.94717
86.05000,-13.98637,-5.96133
86.10001,-13.99477,-5.96167
86.15000,-14.00317,-5.97882
86.20001,-14.01143,-5.98156
86.25001,-14.01983,-5.99435
86.30000,-14.02837,-6.00035
86.35001,-14.03663,-6.01705
86.40000,-14.04490,-6.02074
86.45001,-14.05343,-6.02999
86.50001,-14.06183,-6.04161
86.55000,-14.06983,-6.04528
86.60001,-14.07810,-6.05808
86.65000,-14.08663,-6.06326
86.70001,-14.09477,-6.07363
86.75001,-14.10303,-6.07963
86.80000,-14.11143,-6.08985
86.85001,-14.11970,-6.09919
86.90000,-14.12797,-6.10601
86.95001,-14.13637,-6.11951
87.00001,-14.14477,-6.12455
87.05000,-14.15330,-6.13784
87.10001,-14.16157,-6.14696
87.15000,-14.16983,-6.15561
87.20001,-14.17837,-6.16726
87.25001,-14.18663,-6.17220
87.30000,-14.19477,-6.18838
87.35001,-14.20330,-6.19060
87.40000,-14.21170,-6.20555
87.45001,-14.21970,-6.21050
87.50001,-14.22810,-6.22326
87.55000,-14.23676,-6.22987
87.60001,-14.24477,-6.24535
87.65000,-14.25290,-6.24553
87.70001,-14.26157,-6.26540
87.75001,-14.26983,-6.26644
87.80000,-14.27810,-6.28587
87.85001,-14.28663,-6.28859
87.90000,-14.29503,-6.30139
87.95001,-14.30330,-6.31028
88.00001,-14.31170,-6.32083
88.05000,-14.31996,-6.33071
88.10001,-14.32837,-6.34228
88.15000,-14.33663,-6.34844
88.20001,-14.34476,-6.36341
88.25001,-14.35330,-6.36556
88.30000,-14.36170,-6.38181
88.35001,-14.36970,-6.38941
88.40000,-14.37810,-6.39652
88.45001,-14.38663,-6.40972
88.50001,-14.39476,-6.41595
88.55000,-14.40303,-6.42995
88.60001,-14.41183,-6.43728
88.65000,-14.41996,-6.45225
88.70001,-14.42810,-6.45603
88.75001,-14.43676,-6.46933
88.80000,-14.44503,-6.47707
88.85001,-14.45330,-6.48772
88.90000,-14.46170,-6.49513
88.95001,-14.47010,-6.50693
89.00001,-14.47823,-6.51277
89.05000,-14.48650,-6.52465
89.10001,-14.49476,-6.53233
89.15000,-14.50316,-6.54147
89.20001,-14.51143,-6.55257
89.25001,-14.51956,-6.56121
89.30000,-14.52810,-6.56874
89.35001,-14.53650,-6.58169
89.40000,-14.54476,-6.59142
89.45001,-14.55303,-6.59925
89.50001,-14.56170,-6.60990
89.55000,-14.57010,-6.62202
89.60001,-14.57823,-6.63098
89.65000,-14.58663,-6.63881
89.70001,-14.59516,-6.65115
89.75001,-14.60316,-6.65908
89.80000,-14.61143,-6.66610
89.85001,-14.61996,-6.67925
89.90000,-14.62810,-6.68482
89.95001,-14.63636,-6.69709
90.00001,-14.64476,-6.70192
90.05000,-14.65303,-6.71469
90.10001,-14.66130,-6.72123
90.15000,-14.66970,-6.73480
90.20001,-14.67796,-6.74117
90.25001,-14.68663,-6.75468
90.26000,-14.68823,-6.75501
