Time,Extension,Load
(sec),(mm),(N)
0.00000,-0.00013,0.01982
0.05000,-0.00133,0.01347
0.10000,-0.00587,0.01745
0.15000,-0.01507,0.00806
0.20000,-0.02533,0.00742
0.25000,-0.03573,0.00133
0.30000,-0.04560,-0.00161
0.35000,-0.05507,-0.00825
0.40000,-0.06440,-0.00947
0.45000,-0.07320,-0.01430
0.50000,-0.08187,-0.01658
0.55000,-0.09053,-0.02106
0.60000,-0.09920,-0.02328
0.65000,-0.10773,-0.02703
0.70000,-0.11627,-0.02886
0.75000,-0.12453,-0.03436
0.80000,-0.13320,-0.03560
0.85000,-0.14147,-0.03974
0.90000,-0.14987,-0.04297
0.95000,-0.15840,-0.04605
1.00000,-0.16693,-0.04772
1.05000,-0.17493,-0.05312
1.10000,-0.18333,-0.05514
1.15000,-0.19187,-0.05797
1.20000,-0.19987,-0.06194
1.25000,-0.20813,-0.06402
1.30000,-0.21680,-0.06983
1.35000,-0.22493,-0.07072
1.40000,-0.23307,-0.07721
1.45000,-0.24160,-0.07745
1.50000,-0.24987,-0.08844
1.55000,-0.25813,-0.08380
1.60000,-0.26653,-0.09715
1.65000,-0.27493,-0.09575
1.70000,-0.28333,-0.10474
1.75000,-0.29173,-0.10616
1.80000,-0.29987,-0.11511
1.85000,-0.30840,-0.11728
1.90000,-0.31693,-0.12441
1.95000,-0.32493,-0.12819
2.00000,-0.33333,-0.13512
2.05000,-0.34187,-0.14078
2.10000,-0.35000,-0.14792
2.15000,-0.35813,-0.15385
2.20000,-0.36680,-0.16047
2.25000,-0.37493,-0.16607
2.30000,-0.38307,-0.17107
2.35000,-0.39160,-0.18031
2.40000,-0.40000,-0.18576
2.45000,-0.40813,-0.19380
2.50000,-0.41653,-0.20001
2.55000,-0.42507,-0.20576
2.60000,-0.43320,-0.21621
2.65000,-0.44173,-0.22309
2.70000,-0.45000,-0.22481
2.75000,-0.45853,-0.24123
2.80000,-0.46680,-0.24038
2.85000,-0.47507,-0.25558
2.90000,-0.48333,-0.25877
2.95000,-0.49187,-0.26935
3.00000,-0.50013,-0.27583
3.05000,-0.50827,-0.28587
3.10000,-0.51680,-0.29336
3.15000,-0.52520,-0.30736
3.20000,-0.53333,-0.31157
3.25000,-0.54187,-0.32467
3.30000,-0.55027,-0.33309
3.35000,-0.55840,-0.34268
3.40000,-0.56667,-0.35389
3.45000,-0.57520,-0.36436
3.50000,-0.58333,-0.37338
3.55000,-0.59160,-0.38597
3.60000,-0.60013,-0.39766
3.65000,-0.60840,-0.40505
3.70000,-0.61653,-0.42035
3.75000,-0.62493,-0.43047
3.80000,-0.63333,-0.44091
3.85000,-0.64160,-0.45289
3.90000,-0.65000,-0.46610
3.95000,-0.65813,-0.47711
4.00000,-0.66680,-0.48677
4.05000,-0.67507,-0.50143
4.10000,-0.68320,-0.51011
4.15000,-0.69173,-0.52977
4.20000,-0.70026,-0.53391
4.25000,-0.70826,-0.55247
4.30000,-0.71680,-0.56266
4.35000,-0.72520,-0.57862
4.40000,-0.73320,-0.58922
4.45000,-0.74146,-0.60459
4.50000,-0.75000,-0.61459
4.55000,-0.75813,-0.63306
4.60000,-0.76653,-0.64280
4.65000,-0.77493,-0.65771
4.70000,-0.78320,-0.67905
4.75000,-0.79146,-0.67454
4.80000,-0.79986,-0.71249
4.85000,-0.80826,-0.70586
4.90000,-0.81680,-0.73747
4.95000,-0.82506,-0.74008
5.00000,-0.83320,-0.76559
5.05000,-0.84186,-0.76983
5.10000,-0.85013,-0.79520
5.15000,-0.85826,-0.79787
5.20000,-0.86666,-0.83076
5.25000,-0.87533,-0.82066
5.30000,-0.88333,-0.86651
5.35000,-0.89160,-0.85403
5.40000,-0.90013,-0.89127
5.45000,-0.90813,-0.88739
5.50000,-0.91640,-0.92193
5.55000,-0.92493,-0.92112
5.60000,-0.93333,-0.95113
5.65000,-0.94160,-0.95497
5.70000,-0.95013,-0.98436
5.75000,-0.95853,-0.98502
5.80000,-0.96666,-1.01663
5.85000,-0.97506,-1.01580
5.90000,-0.98346,-1.04875
5.95000,-0.99186,-1.04973
6.00000,-1.00013,-1.07744
6.05000,-1.00853,-1.08384
6.10000,-1.01680,-1.10864
6.15000,-1.02520,-1.11527
6.20000,-1.03346,-1.13948
6.25000,-1.04160,-1.14706
6.30000,-1.05013,-1.16996
6.35000,-1.05826,-1.18120
6.40000,-1.06653,-1.20374
6.45000,-1.07506,-1.21027
6.50000,-1.08346,-1.24018
6.55000,-1.09160,-1.24177
6.60000,-1.10013,-1.27029
6.65000,-1.10866,-1.27686
6.70000,-1.11680,-1.30119
6.75000,-1.12520,-1.30879
6.80000,-1.13360,-1.33140
6.85000,-1.14186,-1.34300
6.90000,-1.15000,-1.36212
6.95000,-1.15826,-1.37154
7.00000,-1.16680,-1.39697
7.05000,-1.17506,-1.39376
7.10000,-1.18333,-1.43402
7.15000,-1.19146,-1.42163
7.20000,-1.20013,-1.46383
7.25000,-1.20840,-1.45304
7.30000,-1.21666,-1.48668
7.35000,-1.22520,-1.48256
7.40000,-1.23346,-1.50916
7.45000,-1.24160,-1.50214
7.50000,-1.25000,-1.53871
7.55000,-1.25853,-1.52802
7.60000,-1.26666,-1.56538
7.65000,-1.27493,-1.54634
7.70000,-1.28346,-1.58477
7.75000,-1.29173,-1.58176
7.80000,-1.29986,-1.60624
7.85000,-1.30813,-1.61025
7.90000,-1.31653,-1.63186
7.95000,-1.32480,-1.62515
8.00000,-1.33320,-1.64803
8.05000,-1.34160,-1.65539
8.10000,-1.35000,-1.67634
8.15000,-1.35840,-1.68658
8.20000,-1.36653,-1.71134
8.25000,-1.37506,-1.71986
8.30000,-1.38346,-1.73972
8.35000,-1.39160,-1.74607
8.40000,-1.39986,-1.75689
8.45000,-1.40840,-1.77120
8.50000,-1.41640,-1.77119
8.55000,-1.42466,-1.78811
8.60000,-1.43346,-1.80321
8.65000,-1.44173,-1.82310
8.70000,-1.44986,-1.84003
8.75000,-1.45826,-1.85931
8.80000,-1.46666,-1.87516
8.85000,-1.47493,-1.89153
8.90000,-1.48333,-1.90086
8.95000,-1.49186,-1.91469
9.00000,-1.50013,-1.92061
9.05000,-1.50840,-1.94789
9.10000,-1.51680,-1.95748
9.15000,-1.52520,-1.98237
9.20000,-1.53346,-1.99032
9.25000,-1.54173,-2.01429
9.30000,-1.55000,-2.02132
9.35000,-1.55840,-2.04928
9.40000,-1.56666,-2.05156
9.45000,-1.57493,-2.07447
9.50000,-1.58346,-2.07697
9.55000,-1.59160,-2.08291
9.60000,-1.59986,-2.08288
9.65000,-1.60853,-2.09100
9.70000,-1.61693,-2.09345
9.75000,-1.62493,-2.10560
9.80000,-1.63333,-2.10508
9.85000,-1.64200,-2.10077
9.90000,-1.65000,-2.09986
9.95000,-1.65840,-2.10364
10.00000,-1.66693,-2.10971
10.05000,-1.67506,-2.11542
10.10000,-1.68333,-2.12242
10.15000,-1.69160,-2.13751
10.20000,-1.70013,-2.14172
10.25000,-1.70840,-2.16853
10.30000,-1.71666,-2.18079
10.35000,-1.72480,-2.20447
10.40000,-1.73346,-2.21829
10.45000,-1.74173,-2.24069
10.50000,-1.74986,-2.25141
10.55000,-1.75840,-2.27125
10.60000,-1.76680,-2.28176
10.65000,-1.77493,-2.30064
10.70000,-1.78333,-2.31236
10.75000,-1.79186,-2.32873
10.80000,-1.80000,-2.34099
10.85000,-1.80826,-2.35763
10.90000,-1.81680,-2.37199
10.95000,-1.82493,-2.39427
11.00000,-1.83320,-2.40730
11.05000,-1.84160,-2.42809
11.10000,-1.84986,-2.44117
11.15000,-1.85813,-2.46158
11.20000,-1.86653,-2.47461
11.25000,-1.87493,-2.49459
11.30000,-1.88333,-2.50946
11.35000,-1.89173,-2.52845
11.40000,-1.89986,-2.54065
11.45000,-1.90840,-2.55978
11.50000,-1.91680,-2.57344
11.55000,-1.92493,-2.59114
11.60000,-1.93333,-2.60318
11.65000,-1.94200,-2.62216
11.70000,-1.95000,-2.63636
11.75000,-1.95826,-2.64993
11.80000,-1.96680,-2.66684
11.85000,-1.97480,-2.68150
11.90000,-1.98306,-2.69514
11.95000,-1.99146,-2.71014
12.00000,-2.00013,-2.73054
12.05000,-2.00826,-2.73569
12.10000,-2.01666,-2.76186
12.15000,-2.02520,-2.76461
12.20000,-2.03346,-2.79126
12.25000,-2.04173,-2.79643
12.30000,-2.05013,-2.81975
12.35000,-2.05853,-2.82442
12.40000,-2.06680,-2.85036
12.45000,-2.07493,-2.85310
12.50000,-2.08319,-2.87388
12.55000,-2.09173,-2.88442
12.60000,-2.09986,-2.90577
12.65000,-2.10826,-2.91105
12.70000,-2.11679,-2.93408
12.75000,-2.12506,-2.93936
12.80000,-2.13319,-2.96081
12.85000,-2.14186,-2.97092
12.90000,-2.15039,-2.98990
12.95000,-2.15839,-2.99961
13.00000,-2.16679,-3.01666
13.05000,-2.17546,-3.02837
13.10000,-2.18346,-3.04480
13.15000,-2.19186,-3.05623
13.20000,-2.20026,-3.07128
13.25000,-2.20839,-3.08646
13.30000,-2.21666,-3.09706
13.35000,-2.22506,-3.11411
13.40000,-2.23333,-3.12637
13.45000,-2.24173,-3.13969
13.50000,-2.24999,-3.15479
13.55000,-2.25826,-3.16737
13.60000,-2.26679,-3.17902
13.65000,-2.27506,-3.19597
13.70000,-2.28333,-3.20402
13.75000,-2.29186,-3.22175
13.80000,-2.30026,-3.23530
13.85000,-2.30826,-3.24674
13.90000,-2.31679,-3.25851
13.95000,-2.32533,-3.27338
14.00000,-2.33333,-3.28374
14.05000,-2.34159,-3.29937
14.10000,-2.35013,-3.31056
14.15000,-2.35826,-3.32756
14.20000,-2.36653,-3.33588
14.25000,-2.37493,-3.35383
14.30000,-2.38319,-3.36245
14.35000,-2.39146,-3.37873
14.40000,-2.39986,-3.39066
14.45000,-2.40813,-3.40707
14.50000,-2.41666,-3.41885
14.55000,-2.42493,-3.43445
14.60000,-2.43319,-3.44439
14.65000,-2.44173,-3.46277
14.70000,-2.45013,-3.47366
14.75000,-2.45826,-3.48989
14.80000,-2.46666,-3.50052
14.85000,-2.47519,-3.51539
14.90000,-2.48319,-3.52970
14.95000,-2.49146,-3.54178
15.00000,-2.50013,-3.55701
15.05000,-2.50826,-3.57097
15.10000,-2.51639,-3.58370
15.15000,-2.52493,-3.59907
15.20000,-2.53346,-3.61462
15.25000,-2.54173,-3.62789
15.30000,-2.55013,-3.64374
15.35000,-2.55853,-3.65600
15.40000,-2.56679,-3.67329
15.45000,-2.57519,-3.68356
15.50000,-2.58346,-3.70130
15.55000,-2.59186,-3.71142
15.60000,-2.60013,-3.72779
15.65000,-2.60839,-3.74092
15.70000,-2.61679,-3.75416
15.75000,-2.62519,-3.76793
15.80000,-2.63333,-3.78266
15.85000,-2.64159,-3.79450
15.90000,-2.65013,-3.80911
15.95000,-2.65826,-3.82155
16.00000,-2.66653,-3.83572
16.05000,-2.67506,-3.84846
16.10000,-2.68359,-3.86452
16.15000,-2.69159,-3.87580
16.20000,-2.70013,-3.89032
16.25000,-2.70866,-3.90376
16.30000,-2.71679,-3.91723
16.35000,-2.72506,-3.92869
16.40000,-2.73346,-3.94428
16.45000,-2.74159,-3.95532
16.50000,-2.74986,-3.96965
16.55000,-2.75813,-3.98132
16.60000,-2.76666,-3.99480
16.65000,-2.77506,-4.00823
16.70000,-2.78333,-4.01948
16.75000,-2.79146,-4.03356
16.80000,-2.80013,-4.04351
16.85000,-2.80839,-4.06027
16.90000,-2.81653,-4.06911
16.95000,-2.82506,-4.08478
17.00000,-2.83359,-4.09515
17.05000,-2.84159,-4.11128
17.10000,-2.85013,-4.11817
17.15000,-2.85879,-4.13745
17.20000,-2.86666,-4.14425
17.25000,-2.87506,-4.16019
17.30000,-2.88346,-4.16737
17.35000,-2.89159,-4.18518
17.40000,-2.89986,-4.19084
17.45000,-2.90826,-4.20718
17.50000,-2.91653,-4.21577
17.55000,-2.92479,-4.23111
17.60000,-2.93319,-4.23991
17.65000,-2.94159,-4.25423
17.70000,-2.95013,-4.26515
17.75000,-2.95839,-4.27908
17.80000,-2.96653,-4.28947
17.85000,-2.97506,-4.30122
17.90000,-2.98346,-4.31308
17.95000,-2.99159,-4.32570
18.00000,-2.99999,-4.33489
18.05000,-3.00853,-4.34825
18.10000,-3.01653,-4.35941
18.15000,-3.02479,-4.37094
18.20000,-3.03346,-4.38089
18.25000,-3.04159,-4.39472
18.30000,-3.04973,-4.40356
18.35000,-3.05826,-4.41689
18.40000,-3.06666,-4.42543
18.45000,-3.07493,-4.43883
18.50000,-3.08333,-4.44811
18.55000,-3.09173,-4.46234
18.60000,-3.10013,-4.46946
18.65000,-3.10839,-4.48310
18.70000,-3.11666,-4.49407
18.75000,-3.12519,-4.50451
18.80000,-3.13346,-4.51456
18.85000,-3.14173,-4.52703
18.90000,-3.15013,-4.53626
18.95000,-3.15853,-4.54784
19.00000,-3.16653,-4.55772
19.05000,-3.17479,-4.56664
19.10000,-3.18346,-4.57923
19.15000,-3.19159,-4.59006
19.20000,-3.19986,-4.59829
19.25000,-3.20839,-4.61071
19.30000,-3.21693,-4.62121
19.35000,-3.22493,-4.62956
19.40000,-3.23333,-4.64103
19.45000,-3.24199,-4.65044
19.50000,-3.25013,-4.66118
19.55000,-3.25853,-4.67074
19.60000,-3.26693,-4.67857
19.65000,-3.27519,-4.69240
19.70000,-3.28333,-4.69751
19.75000,-3.29159,-4.70983
19.80000,-3.29999,-4.71610
19.85000,-3.30839,-4.72887
19.90000,-3.31666,-4.73581
19.95000,-3.32479,-4.74669
20.00000,-3.33346,-4.75467
20.05000,-3.34173,-4.76480
20.10000,-3.34999,-4.77492
20.15000,-3.35853,-4.78197
20.20000,-3.36693,-4.79386
20.25000,-3.37506,-4.80126
20.30000,-3.38333,-4.80887
20.35000,-3.39186,-4.81800
20.40000,-3.39986,-4.82719
20.45000,-3.40812,-4.83292
20.50000,-3.41666,-4.84203
20.55000,-3.42493,-4.85072
20.60000,-3.43319,-4.85938
20.65000,-3.44159,-4.86731
20.70000,-3.44986,-4.87513
20.75000,-3.45826,-4.88393
20.80000,-3.46652,-4.89169
20.85000,-3.47479,-4.89984
20.90000,-3.48346,-4.90820
20.95000,-3.49172,-4.91778
21.00000,-3.49986,-4.92547
21.05000,-3.50839,-4.93240
21.10000,-3.51692,-4.94184
21.15000,-3.52492,-4.95035
21.20000,-3.53332,-4.95692
21.25000,-3.54186,-4.96442
21.30000,-3.54986,-4.97309
21.35000,-3.55812,-4.97862
21.40000,-3.56666,-4.98710
21.45000,-3.57479,-4.99448
21.50000,-3.58306,-5.00309
21.55000,-3.59159,-5.00875
21.60000,-3.60012,-5.01776
21.65000,-3.60826,-5.02517
21.70000,-3.61666,-5.03257
21.75000,-3.62519,-5.03968
21.80000,-3.63346,-5.04658
21.85000,-3.64172,-5.05368
21.90000,-3.64999,-5.06207
21.95000,-3.65852,-5.06725
22.00000,-3.66692,-5.07574
22.05000,-3.67506,-5.08227
22.10000,-3.68332,-5.08829
22.15000,-3.69186,-5.09574
22.20000,-3.69999,-5.10305
22.25000,-3.70826,-5.10814
22.30000,-3.71679,-5.11587
22.35000,-3.72492,-5.12289
22.40000,-3.73319,-5.12768
22.45000,-3.74186,-5.13677
22.50000,-3.75026,-5.14241
22.55000,-3.75839,-5.15002
22.60000,-3.76679,-5.15310
22.65000,-3.77532,-5.16393
22.70000,-3.78346,-5.16580
22.75000,-3.79172,-5.17490
22.80000,-3.80012,-5.17874
22.85000,-3.80852,-5.18986
22.90000,-3.81679,-5.18853
22.95000,-3.82506,-5.20172
23.00000,-3.83332,-5.20065
23.05000,-3.84172,-5.21389
23.10000,-3.84986,-5.21418
23.15000,-3.85812,-5.22551
23.20000,-3.86679,-5.22478
23.25000,-3.87506,-5.24027
23.30000,-3.88319,-5.23762
23.35000,-3.89172,-5.24655
23.40000,-3.90012,-5.25442
23.45000,-3.90826,-5.25776
23.50000,-3.91666,-5.26421
23.55000,-3.92519,-5.27025
23.60000,-3.93332,-5.27716
23.65000,-3.94159,-5.28153
23.70000,-3.95012,-5.28870
23.75000,-3.95826,-5.29120
23.80000,-3.96652,-5.29922
23.85000,-3.97492,-5.29979
23.90000,-3.98319,-5.31554
23.95000,-3.99146,-5.30638
24.00000,-3.99986,-5.32770
24.05000,-4.00826,-5.32093
24.10000,-4.01679,-5.33892
24.15000,-4.02506,-5.33444
24.20000,-4.03332,-5.34769
24.25000,-4.04186,-5.34420
24.30000,-4.05012,-5.35791
24.35000,-4.05826,-5.36104
24.40000,-4.06652,-5.36114
24.45000,-4.07506,-5.37031
24.50000,-4.08319,-5.37543
24.55000,-4.09146,-5.38053
24.60000,-4.10012,-5.38312
24.65000,-4.10839,-5.39075
24.70000,-4.11652,-5.39544
24.75000,-4.12492,-5.39392
24.80000,-4.13332,-5.40758
24.85000,-4.14159,-5.40535
24.90000,-4.14999,-5.41360
24.95000,-4.15852,-5.41901
25.00000,-4.16679,-5.42295
25.05000,-4.17506,-5.42796
25.10000,-4.18346,-5.43601
25.15000,-4.19186,-5.43323
25.20000,-4.20012,-5.44557
25.25000,-4.20826,-5.44333
25.30000,-4.21666,-5.45209
25.35000,-4.22506,-5.45171
25.40000,-4.23332,-5.46236
25.45000,-4.24146,-5.45967
25.50000,-4.25012,-5.46907
25.55000,-4.25826,-5.46833
25.60000,-4.26652,-5.47526
25.65000,-4.27506,-5.47444
25.70000,-4.28359,-5.48700
25.75000,-4.29172,-5.47970
25.80000,-4.29999,-5.49222
25.85000,-4.30866,-5.48784
25.90000,-4.31679,-5.49973
25.95000,-4.32506,-5.49573
26.00000,-4.33359,-5.50252
26.05000,-4.34186,-5.50268
26.10000,-4.35012,-5.50960
26.15000,-4.35839,-5.50854
26.20000,-4.36666,-5.51524
26.25000,-4.37506,-5.51582
26.30000,-4.38332,-5.52071
26.35000,-4.39146,-5.52313
26.40000,-4.40012,-5.52725
26.45000,-4.40839,-5.53484
26.50000,-4.41652,-5.52916
26.55000,-4.42506,-5.54397
26.60000,-4.43346,-5.54176
26.65000,-4.44146,-5.55004
26.70000,-4.44999,-5.54781
26.75000,-4.45866,-5.55749
26.80000,-4.46666,-5.56007
26.85000,-4.47492,-5.56487
26.90000,-4.48346,-5.56783
26.95000,-4.49159,-5.57518
27.00000,-4.49986,-5.57321
27.05000,-4.50826,-5.58543
27.10000,-4.51652,-5.58406
27.15000,-4.52492,-5.59062
27.20000,-4.53319,-5.59730
27.25000,-4.54146,-5.60163
27.30000,-4.54999,-5.60509
27.35000,-4.55839,-5.61240
27.40000,-4.56652,-5.61432
27.45000,-4.57506,-5.62428
27.50000,-4.58346,-5.62259
27.55000,-4.59146,-5.63473
27.60000,-4.59986,-5.62808
27.65000,-4.60852,-5.64469
27.70000,-4.61652,-5.64298
27.75000,-4.62479,-5.65037
27.80000,-4.63346,-5.65200
27.85000,-4.64159,-5.66214
27.90000,-4.64972,-5.66413
27.95000,-4.65826,-5.67111
28.00000,-4.66666,-5.67217
28.05000,-4.67506,-5.68134
28.10000,-4.68332,-5.68658
28.15000,-4.69186,-5.68106
28.20000,-4.70012,-5.70854
28.25000,-4.70839,-5.68859
28.30000,-4.71679,-5.71740
28.35000,-4.72519,-5.69877
28.40000,-4.73346,-5.72765
28.45000,-4.74172,-5.71110
28.50000,-4.75012,-5.73508
28.55000,-4.75866,-5.72102
28.60000,-4.76679,-5.74553
28.65000,-4.77492,-5.73116
28.70000,-4.78346,-5.75302
28.75000,-4.79172,-5.74062
28.80000,-4.79999,-5.76312
28.85000,-4.80839,-5.75022
28.90000,-4.81679,-5.77065
28.95000,-4.82492,-5.76186
29.00000,-4.83332,-5.77520
29.05000,-4.84199,-5.77586
29.10000,-4.85012,-5.78208
29.15000,-4.85852,-5.78891
29.20000,-4.86692,-5.78888
29.25000,-4.87519,-5.79743
29.30000,-4.88332,-5.79737
29.35000,-4.89159,-5.80558
29.40000,-4.89999,-5.80583
29.45000,-4.90825,-5.81239
29.50000,-4.91652,-5.81396
29.55000,-4.92465,-5.82001
29.60000,-4.93332,-5.82236
29.65000,-4.94172,-5.83151
29.70000,-4.94985,-5.83001
29.75000,-4.95852,-5.83970
29.80000,-4.96692,-5.84212
29.85000,-4.97492,-5.84761
29.90000,-4.98332,-5.84885
29.95000,-4.99199,-5.85732
30.00000,-4.99985,-5.85938
30.05000,-5.00825,-5.86178
30.10000,-5.01679,-5.87081
30.15000,-5.02492,-5.86999
30.20000,-5.03319,-5.87874
30.25000,-5.04159,-5.87619
30.30000,-5.04985,-5.88824
30.35000,-5.05812,-5.88393
30.40000,-5.06652,-5.89690
30.45000,-5.07492,-5.89243
30.50000,-5.08345,-5.90673
30.55000,-5.09185,-5.90039
30.60000,-5.09985,-5.91768
30.65000,-5.10839,-5.90653
30.70000,-5.11679,-5.92592
30.75000,-5.12492,-5.91797
30.80000,-5.13332,-5.93304
30.85000,-5.14185,-5.92644
30.90000,-5.14985,-5.94280
30.95000,-5.15812,-5.93510
31.00000,-5.16679,-5.95048
31.05000,-5.17492,-5.94492
31.10000,-5.18305,-5.96205
31.15000,-5.19159,-5.95301
31.20000,-5.19999,-5.97144
31.25000,-5.20825,-5.96576
31.30000,-5.21652,-5.98108
31.35000,-5.22505,-5.97611
31.40000,-5.23345,-5.98587
31.45000,-5.24185,-5.99279
31.50000,-5.25012,-5.99470
31.55000,-5.25839,-5.99815
31.60000,-5.26679,-6.00719
31.65000,-5.27505,-6.00798
31.70000,-5.28345,-6.01356
31.75000,-5.29172,-6.01942
31.80000,-5.29999,-6.02246
31.85000,-5.30825,-6.02728
31.90000,-5.31679,-6.02983
31.95000,-5.32492,-6.03900
32.00000,-5.33319,-6.03336
32.05000,-5.34172,-6.04733
32.10000,-5.35025,-6.04664
32.15000,-5.35825,-6.05089
32.20000,-5.36679,-6.05156
32.25000,-5.37532,-6.06351
32.30000,-5.38332,-6.05759
32.35000,-5.39172,-6.07023
32.40000,-5.40012,-6.06405
32.45000,-5.40839,-6.07714
32.50000,-5.41665,-6.07033
32.55000,-5.42505,-6.08198
32.60000,-5.43345,-6.07910
32.65000,-5.44172,-6.08545
32.70000,-5.44999,-6.08840
32.75000,-5.45812,-6.09210
32.80000,-5.46679,-6.09136
32.85000,-5.47505,-6.10109
32.90000,-5.48332,-6.09969
32.95000,-5.49185,-6.10621
33.00000,-5.50025,-6.10627
33.05000,-5.50825,-6.11485
33.10000,-5.51665,-6.11166
33.15000,-5.52532,-6.11749
33.20000,-5.53332,-6.12412
33.25000,-5.54159,-6.12198
33.30000,-5.55012,-6.12754
33.35000,-5.55825,-6.13023
33.40000,-5.56652,-6.13235
33.45000,-5.57492,-6.13576
33.50000,-5.58319,-6.13805
33.55000,-5.59145,-6.14202
33.60000,-5.59985,-6.14555
33.65000,-5.60812,-6.14765
33.70000,-5.61665,-6.15467
33.75000,-5.62519,-6.15623
33.80000,-5.63319,-6.16103
33.85000,-5.64172,-6.16228
33.90000,-5.65025,-6.16660
33.95000,-5.65825,-6.16869
34.00000,-5.66665,-6.17235
34.05000,-5.67519,-6.17274
34.10000,-5.68319,-6.17944
34.15000,-5.69145,-6.17819
34.20000,-5.69999,-6.18144
34.25000,-5.70812,-6.18610
34.30000,-5.71639,-6.18751
34.35000,-5.72492,-6.18788
34.40000,-5.73332,-6.19594
34.45000,-5.74159,-6.19506
34.50000,-5.74999,-6.20191
34.55000,-5.75852,-6.20300
34.60000,-5.76665,-6.20528
34.65000,-5.77505,-6.20796
34.70000,-5.78345,-6.21222
34.75000,-5.79185,-6.21319
34.80000,-5.80012,-6.21446
34.85000,-5.80839,-6.22054
34.90000,-5.81665,-6.21858
34.95000,-5.82519,-6.22473
35.00000,-5.83332,-6.22558
35.05000,-5.84159,-6.22932
35.10000,-5.85012,-6.23202
35.15000,-5.85839,-6.23434
35.20000,-5.86652,-6.23765
35.25000,-5.87519,-6.24065
35.30000,-5.88359,-6.24395
35.35000,-5.89159,-6.24624
35.40000,-5.90012,-6.24863
35.45000,-5.90865,-6.25074
35.50000,-5.91679,-6.25394
35.55000,-5.92505,-6.25482
35.60000,-5.93345,-6.25953
35.65000,-5.94172,-6.25868
35.70000,-5.94999,-6.26306
35.75000,-5.95839,-6.26345
35.80000,-5.96679,-6.26781
35.85000,-5.97505,-6.26826
35.90000,-5.98332,-6.27058
35.95000,-5.99159,-6.27059
36.00000,-6.00012,-6.27275
36.05000,-6.00839,-6.27698
36.10000,-6.01665,-6.27761
36.15000,-6.02519,-6.27833
36.20000,-6.03359,-6.28234
36.25000,-6.04159,-6.28167
36.30000,-6.04999,-6.28367
36.35000,-6.05852,-6.28550
36.40000,-6.06665,-6.28805
36.45000,-6.07492,-6.28681
36.50000,-6.08345,-6.29406
36.55000,-6.09172,-6.28987
36.60000,-6.09985,-6.29499
36.65000,-6.10825,-6.29122
36.70000,-6.11665,-6.29924
36.75000,-6.12492,-6.29508
36.80000,-6.13319,-6.29884
36.85000,-6.14158,-6.29808
36.90000,-6.14998,-6.30037
36.95000,-6.15838,-6.30124
37.00000,-6.16652,-6.30418
37.05000,-6.17505,-6.30199
37.10000,-6.18345,-6.30756
37.15000,-6.19158,-6.30659
37.20000,-6.19985,-6.30929
37.25000,-6.20852,-6.30968
37.30000,-6.21652,-6.31189
37.35000,-6.22492,-6.31137
37.40000,-6.23345,-6.31494
37.45000,-6.24158,-6.31563
37.50000,-6.24972,-6.31662
37.55000,-6.25825,-6.31716
37.60000,-6.26665,-6.32086
37.65000,-6.27478,-6.32165
37.70000,-6.28318,-6.32193
37.75000,-6.29172,-6.32701
37.80000,-6.30012,-6.32496
37.85000,-6.30838,-6.33051
37.90000,-6.31678,-6.32852
37.95000,-6.32518,-6.33257
38.00000,-6.33345,-6.33074
38.05000,-6.34172,-6.33636
38.10000,-6.34998,-6.33285
38.15000,-6.35852,-6.33778
38.20000,-6.36665,-6.33900
38.25000,-6.37492,-6.34171
38.30000,-6.38345,-6.33823
38.35000,-6.39158,-6.34569
38.40000,-6.39985,-6.34205
38.45000,-6.40852,-6.34922
38.50000,-6.41678,-6.34837
38.55000,-6.42492,-6.34893
38.60000,-6.43332,-6.35035
38.65000,-6.44185,-6.35361
38.70000,-6.44998,-6.35293
38.75000,-6.45838,-6.35495
38.80000,-6.46692,-6.35740
38.85000,-6.47505,-6.35707
38.90000,-6.48332,-6.36184
38.95000,-6.49172,-6.35899
39.00000,-6.50012,-6.36182
39.05000,-6.50838,-6.36512
39.10000,-6.51665,-6.36340
39.15000,-6.52492,-6.36726
39.20000,-6.53345,-6.36879
39.25000,-6.54172,-6.36835
39.30000,-6.54998,-6.37323
39.35000,-6.55852,-6.36863
39.40000,-6.56692,-6.38085
39.45000,-6.57492,-6.37269
39.50000,-6.58332,-6.37986
39.55000,-6.59185,-6.37932
39.60000,-6.59985,-6.38126
39.65000,-6.60825,-6.38040
39.70000,-6.61678,-6.38532
39.75000,-6.62492,-6.38561
39.80000,-6.63318,-6.38525
39.85000,-6.64158,-6.38839
39.90000,-6.64985,-6.38850
39.95000,-6.65812,-6.38937
40.00000,-6.66652,-6.39360
40.05000,-6.67478,-6.39397
40.10000,-6.68332,-6.39746
40.15000,-6.69172,-6.39740
40.20000,-6.69985,-6.39878
40.25000,-6.70838,-6.40298
40.30000,-6.71678,-6.40273
40.35000,-6.72492,-6.40555
40.40000,-6.73332,-6.40509
40.45000,-6.74198,-6.40789
40.50000,-6.74998,-6.41195
40.55000,-6.75812,-6.40893
40.60000,-6.76678,-6.41090
40.65000,-6.77492,-6.41244
40.70000,-6.78318,-6.41377
40.75000,-6.79158,-6.41483
40.80000,-6.79998,-6.41853
40.85000,-6.80825,-6.41735
40.90000,-6.81665,-6.42278
40.95000,-6.82518,-6.42167
41.00000,-6.83345,-6.42591
41.05000,-6.84185,-6.42463
41.10000,-6.85012,-6.43021
41.15000,-6.85852,-6.43033
41.20000,-6.86678,-6.43249
41.25000,-6.87505,-6.43421
41.30000,-6.88332,-6.43453
41.35000,-6.89185,-6.43821
41.40000,-6.89998,-6.43960
41.45000,-6.90825,-6.44317
41.50000,-6.91678,-6.44181
41.55000,-6.92505,-6.44490
41.60000,-6.93318,-6.44357
41.65000,-6.94172,-6.44890
41.70000,-6.95012,-6.45154
41.75000,-6.95825,-6.45189
41.80000,-6.96665,-6.45615
41.85000,-6.97532,-6.45711
41.90000,-6.98345,-6.46020
41.95000,-6.99185,-6.46119
42.00000,-7.00025,-6.46576
42.05000,-7.00852,-6.46603
42.10000,-7.01678,-6.46910
42.15000,-7.02505,-6.47016
42.20000,-7.03345,-6.47448
42.25000,-7.04172,-6.47399
42.30000,-7.04998,-6.47933
42.35000,-7.05825,-6.47747
42.40000,-7.06678,-6.48125
42.45000,-7.07518,-6.48303
42.50000,-7.08332,-6.48455
42.55000,-7.09185,-6.48609
42.60000,-7.10025,-6.49141
42.65000,-7.10825,-6.48643
42.70000,-7.11678,-6.49530
42.75000,-7.12532,-6.49286
42.80000,-7.13332,-6.49928
42.85000,-7.14158,-6.49596
42.90000,-7.14998,-6.50177
42.95000,-7.15825,-6.50108
43.00000,-7.16652,-6.50740
43.05000,-7.17492,-6.50331
43.10000,-7.18332,-6.51421
43.15000,-7.19145,-6.50780
43.20000,-7.19985,-6.51892
43.25000,-7.20825,-6.51172
43.30000,-7.21678,-6.52449
43.35000,-7.22505,-6.51880
43.40000,-7.23332,-6.53075
43.45000,-7.24172,-6.52383
43.50000,-7.25012,-6.53401
43.55000,-7.25825,-6.52805
43.60000,-7.26652,-6.53666
43.65000,-7.27518,-6.53389
43.70000,-7.28332,-6.54268
43.75000,-7.29145,-6.53953
43.80000,-7.29998,-6.54697
43.85000,-7.30812,-6.54430
43.90000,-7.31638,-6.55229
43.95000,-7.32492,-6.54934
44.00000,-7.33345,-6.55903
44.05000,-7.34172,-6.55411
44.10000,-7.35012,-6.56405
44.15000,-7.35852,-6.56057
44.20000,-7.36678,-6.56807
44.25000,-7.37505,-6.56493
44.30000,-7.38332,-6.57226
44.35000,-7.39172,-6.56976
44.40000,-7.40012,-6.57708
44.45000,-7.40838,-6.57554
44.50000,-7.41678,-6.57904
44.55000,-7.42518,-6.57845
44.60000,-7.43332,-6.58308
44.65000,-7.44145,-6.58070
44.70000,-7.44998,-6.58438
44.75000,-7.45825,-6.58509
44.80000,-7.46652,-6.58687
44.85000,-7.47505,-6.58901
44.90000,-7.48358,-6.59235
44.95000,-7.49172,-6.59369
45.00000,-7.50011,-6.59475
45.05000,-7.50865,-6.59737
45.10000,-7.51678,-6.59831
45.15000,-7.52518,-6.60039
45.20000,-7.53358,-6.60168
45.25000,-7.54171,-6.60664
45.30000,-7.54998,-6.60592
45.35000,-7.55838,-6.60681
45.40000,-7.56678,-6.60819
45.45000,-7.57505,-6.61149
45.50000,-7.58332,-6.61530
45.55000,-7.59158,-6.61344
45.60000,-7.60011,-6.61621
45.65000,-7.60838,-6.61670
45.70000,-7.61665,-6.61968
45.75000,-7.62518,-6.62124
45.80000,-7.63358,-6.62332
45.85000,-7.64171,-6.62463
45.90000,-7.65011,-6.62571
45.95000,-7.65865,-6.62986
46.00000,-7.66665,-6.62908
46.05000,-7.67491,-6.63140
46.10000,-7.68345,-6.63344
46.15000,-7.69158,-6.63487
46.20000,-7.69985,-6.63734
46.25000,-7.70825,-6.63986
46.30000,-7.71651,-6.64187
46.35000,-7.72478,-6.64378
46.40000,-7.73318,-6.64759
46.45000,-7.74158,-6.64845
46.50000,-7.74998,-6.65074
46.55000,-7.75838,-6.65294
46.60000,-7.76651,-6.65774
46.65000,-7.77505,-6.65470
46.70000,-7.78345,-6.66021
46.75000,-7.79145,-6.65903
46.80000,-7.79985,-6.66463
46.85000,-7.80851,-6.66149
46.90000,-7.81651,-6.66844
46.95000,-7.82478,-6.66156
47.00000,-7.83345,-6.66849
47.05000,-7.84158,-6.67010
47.10000,-7.84971,-6.67224
47.15000,-7.85825,-6.67094
47.20000,-7.86665,-6.67562
47.25000,-7.87491,-6.67457
47.30000,-7.88331,-6.67864
47.35000,-7.89185,-6.68009
47.40000,-7.90011,-6.68338
47.45000,-7.90851,-6.68456
47.50000,-7.91678,-6.68542
47.55000,-7.92518,-6.68663
47.60000,-7.93358,-6.68890
47.65000,-7.94171,-6.69236
47.70000,-7.94998,-6.68748
47.75000,-7.95851,-6.69487
47.80000,-7.96665,-6.69195
47.85000,-7.97478,-6.69489
47.90000,-7.98345,-6.69265
47.95000,-7.99158,-6.70104
48.00000,-7.99985,-6.69508
48.05000,-8.00851,-6.70223
48.10000,-8.01691,-6.69798
48.15000,-8.02491,-6.70481
48.20000,-8.03331,-6.69890
48.25000,-8.04185,-6.70540
48.30000,-8.04998,-6.70263
48.35000,-8.05838,-6.70480
48.40000,-8.06691,-6.70422
48.45000,-8.07518,-6.70579
48.50000,-8.08331,-6.70494
48.55000,-8.09158,-6.70403
48.60000,-8.09998,-6.70468
48.65000,-8.10838,-6.70349
48.70000,-8.11651,-6.70634
48.75000,-8.12491,-6.70331
48.80000,-8.13345,-6.70627
48.85000,-8.14171,-6.70511
48.90000,-8.14985,-6.70710
48.95000,-8.15851,-6.70373
49.00000,-8.16691,-6.70921
49.05000,-8.17505,-6.70393
49.10000,-8.18345,-6.70650
49.15000,-8.19198,-6.70398
49.20000,-8.19998,-6.70634
49.25000,-8.20825,-6.70357
49.30000,-8.21678,-6.70470
49.35000,-8.22491,-6.70331
49.40000,-8.23318,-6.70385
49.45000,-8.24158,-6.69912
49.50000,-8.24985,-6.70128
49.55000,-8.25811,-6.69656
49.60000,-8.26651,-6.69799
49.65000,-8.27491,-6.69559
49.70000,-8.28331,-6.69624
49.75000,-8.29158,-6.69527
49.80000,-8.29971,-6.69449
49.85000,-8.30838,-6.69411
49.90000,-8.31678,-6.69596
49.95000,-8.32491,-6.69630
50.00000,-8.33331,-6.69481
50.05000,-8.34185,-6.69753
50.10000,-8.34985,-6.69730
50.15000,-8.35811,-6.69690
50.20000,-8.36678,-6.69967
50.25000,-8.37491,-6.70083
50.30000,-8.38305,-6.70139
50.35000,-8.39158,-6.70186
50.40000,-8.40011,-6.70537
50.45000,-8.40825,-6.70507
50.50000,-8.41665,-6.70759
50.55000,-8.42505,-6.70867
50.60000,-8.43345,-6.71018
50.65000,-8.44171,-6.71106
50.70000,-8.44998,-6.71303
50.75000,-8.45838,-6.71351
50.80000,-8.46678,-6.71614
50.85000,-8.47491,-6.71943
50.90000,-8.48331,-6.71940
50.95000,-8.49171,-6.72322
51.00000,-8.49998,-6.72485
51.05000,-8.50825,-6.72628
51.10000,-8.51678,-6.72808
51.15000,-8.52505,-6.73047
51.20000,-8.53318,-6.72883
51.25000,-8.54171,-6.73375
51.30000,-8.55025,-6.73604
51.35000,-8.55838,-6.73895
51.40000,-8.56678,-6.74108
51.45000,-8.57531,-6.74678
51.50000,-8.58345,-6.74739
51.55000,-8.59185,-6.75200
51.60000,-8.60025,-6.75508
51.65000,-8.60838,-6.75925
51.70000,-8.61665,-6.76070
51.75000,-8.62491,-6.76528
51.80000,-8.63331,-6.76689
51.85000,-8.64171,-6.77374
51.90000,-8.64998,-6.77523
51.95000,-8.65811,-6.77849
52.00000,-8.66665,-6.78010
52.05000,-8.67505,-6.78667
52.10000,-8.68318,-6.78869
52.15000,-8.69171,-6.79436
52.20000,-8.70011,-6.79694
52.25000,-8.70811,-6.80228
52.30000,-8.71665,-6.80354
52.35000,-8.72531,-6.81104
52.40000,-8.73345,-6.81406
52.45000,-8.74171,-6.81851
52.50000,-8.75011,-6.82194
52.55000,-8.75838,-6.82553
52.60000,-8.76651,-6.82924
52.65000,-8.77491,-6.83210
52.70000,-8.78318,-6.83598
52.75000,-8.79145,-6.83944
52.80000,-8.79985,-6.84371
52.85000,-8.80811,-6.84715
52.90000,-8.81665,-6.85043
52.95000,-8.82505,-6.85621
53.00000,-8.83318,-6.85886
53.05000,-8.84171,-6.86208
53.10000,-8.85011,-6.86757
53.15000,-8.85824,-6.87009
53.20000,-8.86665,-6.87292
53.25000,-8.87531,-6.87643
53.30000,-8.88331,-6.88092
53.35000,-8.89145,-6.88254
53.40000,-8.90011,-6.88782
53.45000,-8.90838,-6.89104
53.50000,-8.91638,-6.89417
53.55000,-8.92491,-6.89706
53.60000,-8.93331,-6.90155
53.65000,-8.94158,-6.90532
53.70000,-8.94998,-6.90886
53.75000,-8.95851,-6.91421
53.80000,-8.96678,-6.91661
53.85000,-8.97504,-6.92119
53.90000,-8.98345,-6.92458
53.95000,-8.99184,-6.92869
54.00000,-9.00024,-6.93259
54.05000,-9.00838,-6.93668
54.10000,-9.01665,-6.93709
54.15000,-9.02518,-6.94403
54.20000,-9.03331,-6.94772
54.25000,-9.04144,-6.94998
54.30000,-9.05011,-6.95372
54.35000,-9.05838,-6.96022
54.40000,-9.06651,-6.96218
54.45000,-9.07504,-6.96848
54.50000,-9.08358,-6.97287
54.55000,-9.09171,-6.97672
54.60000,-9.10011,-6.97853
54.65000,-9.10864,-6.98549
54.70000,-9.11678,-6.98642
54.75000,-9.12504,-6.99014
54.80000,-9.13358,-6.99373
54.85000,-9.14184,-6.99722
54.90000,-9.15011,-6.99915
54.95000,-9.15838,-7.00415
55.00000,-9.16678,-7.00611
55.05000,-9.17504,-7.01164
55.10000,-9.18318,-7.01381
55.15000,-9.19144,-7.01754
55.20000,-9.20011,-7.02156
55.25000,-9.20838,-7.02863
55.30000,-9.21651,-7.02971
55.35000,-9.22504,-7.02988
55.40000,-9.23358,-7.02866
55.45000,-9.24171,-7.03478
55.50000,-9.25011,-7.03562
55.55000,-9.25864,-7.04170
55.60000,-9.26664,-7.04497
55.65000,-9.27491,-7.04838
55.70000,-9.28331,-7.05081
55.75000,-9.29158,-7.05593
55.80000,-9.29984,-7.05958
55.85000,-9.30811,-7.06315
55.90000,-9.31651,-7.06728
55.95000,-9.32478,-7.07200
56.00000,-9.33318,-7.07623
56.05000,-9.34144,-7.08150
56.10000,-9.35011,-7.08507
56.15000,-9.35838,-7.09175
56.20000,-9.36651,-7.09499
56.25000,-9.37491,-7.09767
56.30000,-9.38344,-7.10512
56.35000,-9.39158,-7.11010
56.40000,-9.39998,-7.11121
56.45000,-9.40864,-7.12126
56.50000,-9.41664,-7.12112
56.55000,-9.42491,-7.12577
56.60000,-9.43344,-7.13117
56.65000,-9.44158,-7.13361
56.70000,-9.44971,-7.13747
56.75000,-9.45811,-7.14024
56.80000,-9.46664,-7.14731
56.85000,-9.47491,-7.14909
56.90000,-9.48331,-7.15702
56.95000,-9.49171,-7.15906
57.00000,-9.50011,-7.16565
57.05000,-9.50851,-7.16894
57.10000,-9.51678,-7.17537
57.15000,-9.52518,-7.17746
57.20000,-9.53344,-7.18490
57.25000,-9.54171,-7.18606
57.30000,-9.54998,-7.19028
57.35000,-9.55851,-7.19337
57.40000,-9.56664,-7.19928
57.45000,-9.57478,-7.19971
57.50000,-9.58344,-7.20531
57.55000,-9.59171,-7.21076
57.60000,-9.59984,-7.21160
57.65000,-9.60838,-7.21631
57.70000,-9.61678,-7.22155
57.75000,-9.62491,-7.22308
57.80000,-9.63331,-7.22742
57.85000,-9.64198,-7.23165
57.90000,-9.64998,-7.23478
57.95000,-9.65838,-7.23744
58.00000,-9.66691,-7.24192
58.05000,-9.67518,-7.24494
58.10000,-9.68331,-7.24674
58.15000,-9.69171,-7.25080
58.20000,-9.69998,-7.25148
58.25000,-9.70838,-7.25625
58.30000,-9.71664,-7.25916
58.35000,-9.72478,-7.25946
58.40000,-9.73344,-7.26293
58.45000,-9.74171,-7.26590
58.50000,-9.74984,-7.26707
58.55000,-9.75838,-7.26855
58.60000,-9.76691,-7.27170
58.65000,-9.77491,-7.27402
58.70000,-9.78331,-7.27358
58.75000,-9.79184,-7.27723
58.80000,-9.79998,-7.27917
58.85000,-9.80824,-7.27862
58.90000,-9.81678,-7.27845
58.95000,-9.82491,-7.27427
59.00000,-9.83304,-7.27507
59.05000,-9.84158,-7.27897
59.10000,-9.84984,-7.28215
59.15000,-9.85824,-7.28480
59.20000,-9.86651,-7.28845
59.25000,-9.87478,-7.29120
59.30000,-9.88344,-7.29414
59.35000,-9.89171,-7.29898
59.40000,-9.89998,-7.30113
59.45000,-9.90851,-7.30333
59.50000,-9.91691,-7.30936
59.55000,-9.92491,-7.31090
59.60000,-9.93331,-7.31153
59.65000,-9.94184,-7.31625
59.70000,-9.94984,-7.31953
59.75000,-9.95798,-7.31862
59.80000,-9.96664,-7.32462
59.85000,-9.97491,-7.32821
59.90000,-9.98304,-7.33142
59.95000,-9.99158,-7.33311
60.00000,-10.00011,-7.33890
60.05000,-10.00824,-7.34179
60.10000,-10.01664,-7.34328
60.15000,-10.02504,-7.34608
60.20000,-10.03331,-7.35028
60.25000,-10.04171,-7.35047
60.30000,-10.04998,-7.35702
60.35000,-10.05851,-7.35634
60.40000,-10.06678,-7.36288
60.45000,-10.07504,-7.36328
60.50000,-10.08331,-7.36488
60.55000,-10.09184,-7.36683
60.60000,-10.09998,-7.37154
60.65000,-10.10811,-7.36872
60.70000,-10.11664,-7.37358
60.75000,-10.12491,-7.37276
60.80000,-10.13304,-7.37807
60.85000,-10.14171,-7.37760
60.90000,-10.15024,-7.38345
60.95000,-10.15837,-7.38623
61.00000,-10.16664,-7.38822
61.05000,-10.17518,-7.38978
61.10000,-10.18344,-7.39561
61.15000,-10.19184,-7.39536
61.20000,-10.20011,-7.40090
61.25000,-10.20851,-7.40124
61.30000,-10.21664,-7.40550
61.35000,-10.22491,-7.40550
61.40000,-10.23331,-7.40817
61.45000,-10.24171,-7.40988
61.50000,-10.24998,-7.41575
61.55000,-10.25824,-7.41448
61.60000,-10.26678,-7.41807
61.65000,-10.27504,-7.42173
61.70000,-10.28317,-7.42402
61.75000,-10.29171,-7.42453
61.80000,-10.30024,-7.43152
61.85000,-10.30837,-7.43298
61.90000,-10.31664,-7.43613
61.95000,-10.32531,-7.43916
62.00000,-10.33331,-7.44247
62.05000,-10.34157,-7.44519
62.10000,-10.35011,-7.44947
62.15000,-10.35824,-7.45086
62.20000,-10.36651,-7.45532
62.25000,-10.37491,-7.45655
62.30000,-10.38317,-7.46202
62.35000,-10.39157,-7.46226
62.40000,-10.39997,-7.46739
62.45000,-10.40824,-7.47050
62.50000,-10.41678,-7.47488
62.55000,-10.42517,-7.47960
62.60000,-10.43317,-7.48284
62.65000,-10.44171,-7.48462
62.70000,-10.45024,-7.49057
62.75000,-10.45824,-7.49197
62.80000,-10.46651,-7.49568
62.85000,-10.47517,-7.50030
62.90000,-10.48331,-7.50460
62.95000,-10.49144,-7.50741
63.00000,-10.49997,-7.51164
63.05000,-10.50811,-7.51552
63.10000,-10.51637,-7.51930
63.15000,-10.52491,-7.52327
63.20000,-10.53344,-7.53030
63.25000,-10.54171,-7.53351
63.30000,-10.55011,-7.53711
63.35000,-10.55851,-7.54368
63.40000,-10.56677,-7.54814
63.45000,-10.57517,-7.55113
63.50000,-10.58344,-7.55702
63.55000,-10.59184,-7.55950
63.60000,-10.60011,-7.56490
63.65000,-10.60824,-7.56867
63.70000,-10.61651,-7.57052
63.75000,-10.62504,-7.57439
63.80000,-10.63331,-7.58129
63.85000,-10.64157,-7.58274
63.90000,-10.65011,-7.58564
63.95000,-10.65837,-7.59662
64.00000,-10.66651,-7.59140
64.05000,-10.67517,-7.60316
64.10001,-10.68357,-7.60395
64.15000,-10.69157,-7.61078
64.20000,-10.69997,-7.60892
64.25000,-10.70864,-7.61952
64.30000,-10.71677,-7.61763
64.35001,-10.72517,-7.62684
64.40000,-10.73371,-7.62654
64.45000,-10.74197,-7.63342
64.50000,-10.75011,-7.63367
64.55000,-10.75851,-7.64160
64.60001,-10.76691,-7.64036
64.65000,-10.77517,-7.64829
64.70000,-10.78331,-7.65007
64.75000,-10.79144,-7.65271
64.80000,-10.80011,-7.65995
64.85001,-10.80824,-7.66067
64.90000,-10.81637,-7.66765
64.95000,-10.82504,-7.66926
65.00000,-10.83344,-7.67880
65.05000,-10.84144,-7.67982
65.10001,-10.84997,-7.68439
65.15000,-10.85851,-7.68929
65.20000,-10.86664,-7.69436
65.25000,-10.87491,-7.69693
65.30000,-10.88344,-7.70288
65.35001,-10.89157,-7.70613
65.40000,-10.89984,-7.71378
65.45000,-10.90824,-7.71459
65.50000,-10.91651,-7.72319
65.55000,-10.92491,-7.72361
65.60001,-10.93344,-7.73212
65.65000,-10.94157,-7.73187
65.70001,-10.95011,-7.73842
65.75000,-10.95851,-7.74262
65.80000,-10.96664,-7.74859
65.85001,-10.97504,-7.74868
65.90000,-10.98357,-7.75782
65.95001,-10.99157,-7.76033
66.00000,-10.99997,-7.76462
66.05000,-11.00864,-7.76880
66.10001,-11.01664,-7.77463
66.15000,-11.02477,-7.77465
66.20001,-11.03344,-7.78155
66.25000,-11.04157,-7.78611
66.30000,-11.04984,-7.79005
66.35001,-11.05824,-7.79323
66.40000,-11.06677,-7.79958
66.45001,-11.07491,-7.80348
66.50000,-11.08344,-7.80846
66.55000,-11.09184,-7.81393
66.60001,-11.10011,-7.81820
66.65000,-11.10851,-7.82427
66.70001,-11.11677,-7.82510
66.75000,-11.12517,-7.82855
66.80000,-11.13344,-7.83596
66.85001,-11.14171,-7.83796
66.90000,-11.14997,-7.83883
66.95001,-11.15851,-7.84851
67.00000,-11.16664,-7.84891
67.05000,-11.17477,-7.85335
67.10001,-11.18331,-7.85594
67.15000,-11.19157,-7.86283
67.20001,-11.19984,-7.86078
67.25000,-11.20851,-7.87092
67.30000,-11.21691,-7.87216
67.35001,-11.22504,-7.87959
67.40000,-11.23344,-7.87691
67.45001,-11.24211,-7.88968
67.50000,-11.25011,-7.88532
67.55000,-11.25851,-7.89307
67.60001,-11.26691,-7.89557
67.65000,-11.27517,-7.89938
67.70001,-11.28331,-7.89792
67.75000,-11.29157,-7.90651
67.80000,-11.29997,-7.90424
67.85001,-11.30837,-7.91229
67.90000,-11.31651,-7.91107
67.95001,-11.32477,-7.91715
68.00000,-11.33344,-7.90898
68.05000,-11.34171,-7.90046
68.10001,-11.34971,-7.90286
68.15000,-11.35837,-7.90836
68.20001,-11.36677,-7.91523
68.25000,-11.37491,-7.91360
68.30000,-11.38331,-7.92280
68.35001,-11.39197,-7.92567
68.40000,-11.40011,-7.93209
68.45001,-11.40837,-7.93473
68.50000,-11.41677,-7.94272
68.55000,-11.42504,-7.94529
68.60001,-11.43317,-7.95029
68.65000,-11.44171,-7.95340
68.70001,-11.44984,-7.96098
68.75000,-11.45811,-7.96005
68.80000,-11.46651,-7.97168
68.85001,-11.47477,-7.96927
68.90000,-11.48331,-7.98140
68.95001,-11.49157,-7.98336
69.00000,-11.49971,-7.98670
69.05000,-11.50824,-7.99387
69.10001,-11.51677,-7.99735
69.15000,-11.52491,-8.00551
69.20001,-11.53317,-8.00515
69.25000,-11.54184,-8.01337
69.30000,-11.54997,-8.01705
69.35001,-11.55824,-8.01891
69.40000,-11.56677,-8.02659
69.45001,-11.57477,-8.02659
69.50000,-11.58304,-8.03983
69.55000,-11.59157,-8.03293
69.60001,-11.59997,-8.04820
69.65000,-11.60824,-8.04931
69.70001,-11.61677,-8.05649
69.75000,-11.62517,-8.06026
69.80000,-11.63344,-8.06342
69.85001,-11.64171,-8.07236
69.90000,-11.65011,-8.07431
69.95001,-11.65850,-8.08027
70.00000,-11.66677,-8.08637
70.05000,-11.67504,-8.08628
70.10001,-11.68344,-8.09935
70.15000,-11.69184,-8.09587
70.20001,-11.70010,-8.10497
70.25000,-11.70824,-8.11096
70.30000,-11.71677,-8.10810
70.35001,-11.72504,-8.12342
70.40000,-11.73317,-8.11968
70.45001,-11.74184,-8.13184
70.50000,-11.75024,-8.13425
70.55000,-11.75824,-8.13815
70.60001,-11.76677,-8.14664
70.65000,-11.77530,-8.14772
70.70001,-11.78344,-8.15812
70.75000,-11.79170,-8.15393
70.80000,-11.80024,-8.16710
70.85001,-11.80850,-8.16732
70.90000,-11.81677,-8.17148
70.95001,-11.82504,-8.17656
71.00000,-11.83344,-8.18041
71.05000,-11.84170,-8.18332
71.10001,-11.84997,-8.18978
71.15000,-11.85810,-8.18932
71.20001,-11.86677,-8.19657
71.25000,-11.87504,-8.20171
71.30000,-11.88317,-8.20794
71.35001,-11.89184,-8.20846
71.40000,-11.90024,-8.22192
71.45001,-11.90837,-8.22195
71.50000,-11.91677,-8.22582
71.55000,-11.92530,-8.23142
71.60001,-11.93330,-8.23690
71.65000,-11.94170,-8.23867
71.70001,-11.94997,-8.24240
71.75000,-11.95810,-8.24822
71.80000,-11.96637,-8.24759
71.85001,-11.97477,-8.26077
71.90000,-11.98317,-8.25802
71.95001,-11.99144,-8.26876
72.00000,-11.99984,-8.27066
72.05000,-12.00810,-8.27752
72.10001,-12.01650,-8.27883
72.15000,-12.02490,-8.29170
72.20001,-12.03317,-8.29118
72.25000,-12.04170,-8.29866
72.30000,-12.05010,-8.30126
72.35001,-12.05824,-8.31352
72.40000,-12.06664,-8.30821
72.45001,-12.07530,-8.32316
72.50000,-12.08330,-8.32002
72.55000,-12.09144,-8.32932
72.60001,-12.10010,-8.33110
72.65000,-12.10824,-8.33750
72.70001,-12.11637,-8.34246
72.75000,-12.12477,-8.34453
72.80000,-12.13330,-8.35391
72.85001,-12.14157,-8.35779
72.90000,-12.14997,-8.36407
72.95001,-12.15837,-8.36854
73.00000,-12.16677,-8.37441
73.05000,-12.17504,-8.37741
73.10001,-12.18344,-8.38426
73.15000,-12.19184,-8.38804
73.20001,-12.20024,-8.39543
73.25000,-12.20837,-8.39776
73.30000,-12.21664,-8.40291
73.35001,-12.22517,-8.40834
73.40000,-12.23330,-8.41525
73.45001,-12.24144,-8.41339
73.50000,-12.25010,-8.42430
73.55000,-12.25824,-8.42655
73.60001,-12.26664,-8.43231
73.65000,-12.27530,-8.43777
73.70001,-12.28357,-8.44465
73.75000,-12.29157,-8.44555
73.80000,-12.30010,-8.45171
73.85001,-12.30864,-8.45689
73.90000,-12.31677,-8.46152
73.95001,-12.32517,-8.46574
74.00000,-12.33344,-8.47409
74.05000,-12.34170,-8.47549
74.10001,-12.34997,-8.47703
74.15000,-12.35824,-8.48998
74.20001,-12.36677,-8.48329
74.25000,-12.37504,-8.50149
74.30000,-12.38344,-8.49259
74.35001,-12.39157,-8.50787
74.40000,-12.40010,-8.50079
74.45001,-12.40837,-8.51681
74.50000,-12.41664,-8.51122
74.55000,-12.42517,-8.52408
74.60001,-12.43344,-8.52351
74.65000,-12.44157,-8.52598
74.70001,-12.45010,-8.53584
74.75000,-12.45850,-8.53446
74.80000,-12.46650,-8.54210
74.85001,-12.47477,-8.54118
74.90000,-12.48330,-8.54940
74.95001,-12.49157,-8.54778
75.00000,-12.49984,-8.55702
75.05000,-12.50824,-8.55951
75.10001,-12.51650,-8.56739
75.15000,-12.52477,-8.56508
75.20001,-12.53317,-8.57694
75.25000,-12.54144,-8.57511
75.30000,-12.54997,-8.58635
75.35001,-12.55837,-8.58615
75.40000,-12.56650,-8.59368
75.45001,-12.57504,-8.59545
75.50000,-12.58357,-8.60614
75.55000,-12.59170,-8.60737
75.60001,-12.59997,-8.61137
75.65000,-12.60864,-8.61883
75.70001,-12.61650,-8.62151
75.75000,-12.62477,-8.62763
75.80000,-12.63330,-8.62908
75.85001,-12.64144,-8.64029
75.90000,-12.64970,-8.63717
75.95001,-12.65810,-8.64818
76.00000,-12.66664,-8.65109
76.05000,-12.67490,-8.66041
76.10001,-12.68330,-8.66005
76.15000,-12.69170,-8.67246
76.20001,-12.70010,-8.66988
76.25000,-12.70850,-8.68641
76.30000,-12.71690,-8.68223
76.35001,-12.72517,-8.69473
76.40000,-12.73344,-8.69042
76.45001,-12.74170,-8.70620
76.50000,-12.74997,-8.69864
76.55000,-12.75850,-8.71069
76.60001,-12.76664,-8.71339
76.65000,-12.77490,-8.72264
76.70001,-12.78344,-8.71901
76.75000,-12.79157,-8.73236
76.80000,-12.79984,-8.72996
76.85001,-12.80850,-8.74515
76.90000,-12.81690,-8.74601
76.95001,-12.82504,-8.75408
77.00000,-12.83344,-8.75729
77.05000,-12.84197,-8.76474
77.10001,-12.84997,-8.76831
77.15000,-12.85850,-8.77743
77.20001,-12.86690,-8.77546
77.25000,-12.87504,-8.79201
77.30000,-12.88344,-8.78628
77.35001,-12.89170,-8.80265
77.40000,-12.90010,-8.79827
77.45001,-12.90837,-8.81254
77.50000,-12.91663,-8.81359
77.55000,-12.92490,-8.82109
77.60001,-12.93343,-8.82704
77.65000,-12.94170,-8.83818
77.70001,-12.94984,-8.83845
77.75000,-12.95850,-8.85008
77.80000,-12.96690,-8.85452
77.85001,-12.97490,-8.86504
77.90000,-12.98343,-8.86471
77.95001,-12.99197,-8.87919
78.00000,-12.99997,-8.88292
78.05000,-13.00824,-8.89114
78.10001,-13.01677,-8.89243
78.15000,-13.02490,-8.90511
78.20001,-13.03317,-8.90603
78.25000,-13.04157,-8.91699
78.30000,-13.04997,-8.92003
78.35001,-13.05810,-8.93145
78.40000,-13.06650,-8.93343
78.45001,-13.07477,-8.94643
78.50000,-13.08330,-8.94918
78.55000,-13.09170,-8.95624
78.60001,-13.09983,-8.96924
78.65000,-13.10837,-8.96690
78.70001,-13.11690,-8.98520
78.75000,-13.12490,-8.98286
78.80000,-13.13330,-8.99449
78.85001,-13.14183,-8.99794
78.90000,-13.14983,-9.01076
78.95001,-13.15810,-9.00775
79.00000,-13.16677,-9.02565
79.05000,-13.17490,-9.02403
79.10001,-13.18317,-9.04114
79.15000,-13.19157,-9.03572
79.20001,-13.19997,-9.05708
79.25000,-13.20823,-9.05468
79.30000,-13.21663,-9.07022
79.35001,-13.22517,-9.07301
79.40000,-13.23343,-9.08545
79.45001,-13.24183,-9.08999
79.50000,-13.25010,-9.10203
79.55000,-13.25850,-9.10381
79.60001,-13.26690,-9.11595
79.65000,-13.27503,-9.12525
79.70001,-13.28343,-9.12722
79.75000,-13.29183,-9.13977
79.80000,-13.29997,-9.14516
79.85001,-13.30810,-9.15479
79.90000,-13.31677,-9.15947
79.95001,-13.32503,-9.17384
80.00000,-13.33317,-9.17544
80.05000,-13.34170,-9.18637
80.10001,-13.34997,-9.19507
80.15000,-13.35823,-9.20328
80.20001,-13.36677,-9.21377
80.25000,-13.37530,-9.21764
80.30000,-13.38343,-9.23824
80.35001,-13.39183,-9.23193
80.40000,-13.40023,-9.25448
80.45001,-13.40850,-9.24929
80.50001,-13.41663,-9.26684
80.55000,-13.42503,-9.26644
80.60001,-13.43343,-9.28216
80.65000,-13.44170,-9.28076
80.70001,-13.44997,-9.29759
80.75001,-13.45810,-9.29381
80.80000,-13.46677,-9.31204
80.85001,-13.47503,-9.31248
80.90000,-13.48317,-9.32648
80.95001,-13.49170,-9.32909
81.00001,-13.50010,-9.34377
81.05000,-13.50823,-9.34584
81.10001,-13.51663,-9.35628
81.15000,-13.52530,-9.36267
81.20001,-13.53330,-9.37464
81.25001,-13.54157,-9.37524
81.30000,-13.55010,-9.38760
81.35001,-13.55823,-9.39219
81.40000,-13.56650,-9.40143
81.45001,-13.57490,-9.40572
81.50001,-13.58317,-9.41378
81.55000,-13.59143,-9.41987
81.60001,-13.59983,-9.42868
81.65000,-13.60810,-9.43587
81.70001,-13.61663,-9.44429
81.75001,-13.62503,-9.45258
81.80000,-13.63317,-9.46078
81.85001,-13.64170,-9.46589
81.90000,-13.65010,-9.47665
81.95001,-13.65823,-9.48388
82.00001,-13.66663,-9.48795
82.05000,-13.67530,-9.49871
82.10001,-13.68330,-9.50591
82.15000,-13.69143,-9.51138
82.20001,-13.70010,-9.51748
82.25001,-13.70837,-9.53034
82.30000,-13.71650,-9.53314
82.35001,-13.72490,-9.54288
82.40000,-13.73330,-9.54697
82.45001,-13.74157,-9.56265
82.50001,-13.74997,-9.56111
82.55000,-13.75837,-9.57702
82.60001,-13.76677,-9.57719
82.65000,-13.77503,-9.59187
82.70001,-13.78330,-9.59482
82.75001,-13.79183,-9.60604
82.80000,-13.80010,-9.60841
82.85001,-13.80837,-9.62411
82.90000,-13.81677,-9.62238
82.95001,-13.82517,-9.63899
83.00001,-13.83330,-9.64063
83.05000,-13.84157,-9.64874
83.10001,-13.84997,-9.65501
83.15000,-13.85823,-9.66495
83.20001,-13.86637,-9.67006
83.25001,-13.87503,-9.68008
83.30000,-13.88357,-9.69381
83.35001,-13.89170,-9.69653
83.40000,-13.90010,-9.70786
83.45001,-13.90877,-9.71362
83.50001,-13.91690,-9.72411
83.55000,-13.92517,-9.72742
83.60001,-13.93357,-9.74010
83.65000,-13.94183,-9.74546
83.70001,-13.95010,-9.75249
83.75001,-13.95837,-9.76393
83.80000,-13.96677,-9.76724
83.85001,-13.97503,-9.77819
83.90000,-13.98330,-9.78391
83.95001,-13.99157,-9.79290
84.00001,-14.00010,-9.79684
84.05000,-14.00823,-9.80933
84.10001,-14.01637,-9.81130
84.15000,-14.02503,-9.82581
84.20001,-14.03357,-9.82891
84.25001,-14.04157,-9.84545
84.30000,-14.05010,-9.84247
84.35001,-14.05877,-9.86037
84.40000,-14.06677,-9.86008
84.45001,-14.07490,-9.87274
84.50001,-14.08343,-9.87302
84.55000,-14.09157,-9.88741
84.60001,-14.09970,-9.88682
84.65000,-14.10823,-9.90123
84.70001,-14.11650,-9.90308
84.75001,-14.12477,-9.91551
84.80000,-14.13317,-9.91934
84.85001,-14.14143,-9.93023
84.90000,-14.15010,-9.93460
84.95001,-14.15837,-9.94886
85.00001,-14.16650,-9.94855
85.05000,-14.17503,-9.96252
85.10001,-14.18357,-9.96421
85.15000,-14.19157,-9.97968
85.20001,-14.19997,-9.97654
85.25001,-14.20850,-9.99110
85.30000,-14.21650,-9.99376
85.35001,-14.22476,-10.00378
85.40000,-14.23343,-10.00506
85.45001,-14.24157,-10.01972
85.50001,-14.24970,-10.01796
85.55000,-14.25823,-10.03327
85.60001,-14.26663,-10.03303
85.65000,-14.27490,-10.05080
85.70001,-14.28330,-10.04896
85.75001,-14.29183,-10.06461
85.80000,-14.30023,-10.06743
85.85001,-14.30850,-10.07562
85.90000,-14.31676,-10.08340
85.95001,-14.32517,-10.08686
86.00001,-14.33343,-10.09511
86.05000,-14.34170,-10.10202
86.10001,-14.35010,-10.10348
86.15000,-14.35850,-10.11577
86.20001,-14.36663,-10.11900
86.25001,-14.37490,-10.12230
86.30000,-14.38343,-10.13291
86.35001,-14.39170,-10.12658
86.40000,-14.39983,-10.14817
86.45001,-14.40850,-10.13770
86.50001,-14.41690,-10.15821
86.55000,-14.42503,-10.15319
86.60001,-14.43343,-10.15900
86.65000,-14.44197,-10.16616
86.70001,-14.45010,-10.17011
86.75001,-14.45836,-10.17187
86.80000,-14.46690,-10.18699
86.85001,-14.47516,-10.18284
86.90000,-14.48330,-10.19691
86.95001,-14.49170,-10.19786
87.00001,-14.49996,-10.20601
87.05000,-14.50836,-10.20932
87.10001,-14.51650,-10.22103
87.15000,-14.52476,-10.21592
87.20001,-14.53343,-10.23820
87.25001,-14.54170,-10.22965
87.30000,-14.54983,-10.25094
87.35001,-14.55836,-10.24145
87.40000,-14.56690,-10.26694
87.45001,-14.57490,-10.25827
87.50001,-14.58330,-10.27625
87.55000,-14.59196,-10.27228
87.60001,-14.59996,-10.29180
87.65000,-14.60823,-10.28254
87.70001,-14.61676,-10.30200
87.75001,-14.62490,-10.29566
87.80000,-14.63316,-10.31289
87.85001,-14.64156,-10.31235
87.90000,-14.64983,-10.32627
87.95001,-14.65810,-10.32519
88.00001,-14.66636,-10.34151
88.05000,-14.67476,-10.34164
88.10001,-14.68330,-10.35523
88.15000,-14.69183,-10.35939
88.20001,-14.69996,-10.37139
88.25001,-14.70836,-10.37194
88.30000,-14.71690,-10.38341
88.35001,-14.72503,-10.38780
88.40000,-14.73330,-10.39408
88.45001,-14.74183,-10.39349
88.50001,-14.74996,-10.41219
88.55000,-14.75810,-10.40004
88.60001,-14.76663,-10.42215
88.65000,-14.77490,-10.41452
88.70001,-14.78303,-10.43491
88.75001,-14.79156,-10.42291
88.80000,-14.79996,-10.44887
88.85001,-14.80823,-10.43978
88.90000,-14.81663,-10.45996
88.95001,-14.82503,-10.45868
89.00001,-14.83356,-10.47311
89.05000,-14.84183,-10.47574
89.10001,-14.85010,-10.48888
89.15000,-14.85850,-10.48672
89.17600,-14.86290,-10.50030
