Time,Extension,Load
(sec),(mm),(N)
0.00000,-0.00013,-0.12943
0.05000,-0.00093,-0.13258
0.10000,-0.00467,-0.13030
0.15000,-0.01333,-0.14417
0.20000,-0.02427,-0.15866
0.25000,-0.03453,-0.17176
0.30000,-0.04480,-0.18948
0.35000,-0.05467,-0.19333
0.40000,-0.06373,-0.21675
0.45000,-0.07307,-0.21639
0.50000,-0.08200,-0.23502
0.55000,-0.09053,-0.23839
0.60000,-0.09933,-0.25278
0.65000,-0.10813,-0.25955
0.70000,-0.11640,-0.27215
0.75000,-0.12480,-0.27557
0.80000,-0.13347,-0.29193
0.85000,-0.14173,-0.29206
0.90000,-0.15000,-0.30780
0.95000,-0.15840,-0.31123
1.00000,-0.16680,-0.32139
1.05000,-0.17520,-0.32808
1.10000,-0.18333,-0.33849
1.15000,-0.19173,-0.34400
1.20000,-0.20027,-0.35210
1.25000,-0.20840,-0.36069
1.30000,-0.21680,-0.37023
1.35000,-0.22547,-0.37537
1.40000,-0.23373,-0.39006
1.45000,-0.24187,-0.38894
1.50000,-0.25027,-0.40591
1.55000,-0.25880,-0.40797
1.60000,-0.26693,-0.42203
1.65000,-0.27520,-0.42590
1.70000,-0.28373,-0.43639
1.75000,-0.29187,-0.44101
1.80000,-0.30013,-0.45470
1.85000,-0.30853,-0.46109
1.90000,-0.31680,-0.47169
1.95000,-0.32493,-0.47593
2.00000,-0.33333,-0.48832
2.05000,-0.34173,-0.49591
2.10000,-0.35027,-0.50419
2.15000,-0.35853,-0.51337
2.20000,-0.36680,-0.51984
2.25000,-0.37533,-0.53249
2.30000,-0.38373,-0.54027
2.35000,-0.39187,-0.55000
2.40000,-0.40040,-0.56074
2.45000,-0.40880,-0.57077
2.50000,-0.41667,-0.58053
2.55000,-0.42507,-0.58948
2.60000,-0.43360,-0.60029
2.65000,-0.44173,-0.61167
2.70000,-0.45000,-0.61896
2.75000,-0.45853,-0.63207
2.80000,-0.46680,-0.63998
2.85000,-0.47507,-0.65299
2.90000,-0.48360,-0.66189
2.95000,-0.49200,-0.67285
3.00000,-0.50027,-0.68275
3.05000,-0.50867,-0.69464
3.10000,-0.51693,-0.70489
3.15000,-0.52533,-0.71540
3.20000,-0.53373,-0.72692
3.25000,-0.54173,-0.73603
3.30000,-0.55040,-0.74685
3.35000,-0.55867,-0.75819
3.40000,-0.56667,-0.76881
3.45000,-0.57507,-0.77892
3.50000,-0.58347,-0.79042
3.55000,-0.59173,-0.79977
3.60000,-0.60013,-0.81188
3.65000,-0.60880,-0.82123
3.70000,-0.61707,-0.83297
3.75000,-0.62520,-0.84412
3.80000,-0.63373,-0.85585
3.85000,-0.64200,-0.86708
3.90000,-0.65027,-0.87726
3.95000,-0.65867,-0.88851
4.00000,-0.66707,-0.89902
4.05000,-0.67533,-0.91047
4.10000,-0.68360,-0.91981
4.15000,-0.69186,-0.93018
4.20000,-0.70026,-0.93951
4.25000,-0.70853,-0.95047
4.30000,-0.71680,-0.96004
4.35000,-0.72520,-0.97071
4.40000,-0.73360,-0.98104
4.45000,-0.74186,-0.99125
4.50000,-0.75013,-1.00291
4.55000,-0.75866,-1.01297
4.60000,-0.76693,-1.02425
4.65000,-0.77520,-1.03324
4.70000,-0.78360,-1.04421
4.75000,-0.79213,-1.05414
4.80000,-0.80026,-1.06484
4.85000,-0.80853,-1.07325
4.90000,-0.81706,-1.08734
4.95000,-0.82506,-1.09535
5.00000,-0.83333,-1.10832
5.05000,-0.84186,-1.11634
5.10000,-0.85013,-1.12828
5.15000,-0.85840,-1.13840
5.20000,-0.86680,-1.15214
5.25000,-0.87520,-1.16050
5.30000,-0.88360,-1.17649
5.35000,-0.89186,-1.18548
5.40000,-0.90013,-1.20049
5.45000,-0.90866,-1.20895
5.50000,-0.91693,-1.22587
5.55000,-0.92506,-1.23181
5.60000,-0.93360,-1.24641
5.65000,-0.94200,-1.25684
5.70000,-0.95000,-1.26965
5.75000,-0.95840,-1.27811
5.80000,-0.96693,-1.29360
5.85000,-0.97493,-1.30159
5.90000,-0.98320,-1.31484
5.95000,-0.99173,-1.32533
6.00000,-1.00013,-1.33730
6.05000,-1.00840,-1.34950
6.10000,-1.01693,-1.35935
6.15000,-1.02533,-1.37294
6.20000,-1.03360,-1.38413
6.25000,-1.04200,-1.39616
6.30000,-1.05026,-1.40736
6.35000,-1.05880,-1.41738
6.40000,-1.06706,-1.42773
6.45000,-1.07506,-1.44074
6.50000,-1.08360,-1.44973
6.55000,-1.09200,-1.46159
6.60000,-1.10000,-1.47332
6.65000,-1.10853,-1.48438
6.70000,-1.11693,-1.49354
6.75000,-1.12506,-1.50695
6.80000,-1.13333,-1.51541
6.85000,-1.14200,-1.52840
6.90000,-1.15026,-1.53712
6.95000,-1.15840,-1.54860
7.00000,-1.16706,-1.56146
7.05000,-1.17546,-1.57136
7.10000,-1.18360,-1.58091
7.15000,-1.19200,-1.59334
7.20000,-1.20040,-1.60281
7.25000,-1.20866,-1.61340
7.30000,-1.21693,-1.62374
7.35000,-1.22520,-1.63531
7.40000,-1.23360,-1.64528
7.45000,-1.24186,-1.65638
7.50000,-1.25013,-1.66638
7.55000,-1.25853,-1.67780
7.60000,-1.26693,-1.68789
7.65000,-1.27520,-1.69942
7.70000,-1.28360,-1.70900
7.75000,-1.29213,-1.71998
7.80000,-1.30040,-1.72992
7.85000,-1.30853,-1.73894
7.90000,-1.31693,-1.74884
7.95000,-1.32546,-1.76147
8.00000,-1.33360,-1.77079
8.05000,-1.34186,-1.78113
8.10000,-1.35040,-1.79362
8.15000,-1.35853,-1.80370
8.20000,-1.36680,-1.81450
8.25000,-1.37506,-1.82352
8.30000,-1.38333,-1.83296
8.35000,-1.39160,-1.84414
8.40000,-1.40000,-1.85414
8.45000,-1.40840,-1.86369
8.50000,-1.41680,-1.87497
8.55000,-1.42520,-1.88511
8.60000,-1.43346,-1.89454
8.65000,-1.44200,-1.90217
8.70000,-1.45040,-1.91380
8.75000,-1.45853,-1.92126
8.80000,-1.46706,-1.93127
8.85000,-1.47546,-1.93917
8.90000,-1.48346,-1.94869
8.95000,-1.49173,-1.95609
9.00000,-1.50026,-1.96569
9.05000,-1.50840,-1.97388
9.10000,-1.51653,-1.98275
9.15000,-1.52520,-1.99047
9.20000,-1.53360,-1.99988
9.25000,-1.54173,-2.00902
9.30000,-1.55026,-2.01743
9.35000,-1.55880,-2.02661
9.40000,-1.56706,-2.03494
9.45000,-1.57533,-2.04430
9.50000,-1.58373,-2.05441
9.55000,-1.59213,-2.06476
9.60000,-1.60040,-2.07410
9.65000,-1.60840,-2.08435
9.70000,-1.61706,-2.09370
9.75000,-1.62533,-2.10305
9.80000,-1.63333,-2.10998
9.85000,-1.64173,-2.11890
9.90000,-1.65013,-2.12731
9.95000,-1.65813,-2.13528
10.00000,-1.66653,-2.14310
10.05000,-1.67533,-2.15270
10.10000,-1.68360,-2.16329
10.15000,-1.69186,-2.16972
10.20000,-1.70040,-2.17890
10.25000,-1.70866,-2.18848
10.30000,-1.71680,-2.19657
10.35000,-1.72520,-2.20617
10.40000,-1.73373,-2.21492
10.45000,-1.74200,-2.22378
10.50000,-1.75026,-2.23328
10.55000,-1.75853,-2.24056
10.60000,-1.76693,-2.24972
10.65000,-1.77520,-2.25720
10.70000,-1.78346,-2.26378
10.75000,-1.79186,-2.27267
10.80000,-1.80026,-2.28262
10.85000,-1.80853,-2.29277
10.90000,-1.81680,-2.30137
10.95000,-1.82533,-2.30845
11.00000,-1.83373,-2.31710
11.05000,-1.84186,-2.32403
11.10000,-1.85040,-2.32904
11.15000,-1.85880,-2.32005
11.20000,-1.86693,-2.32760
11.25000,-1.87520,-2.33695
11.30000,-1.88373,-2.34947
11.35000,-1.89186,-2.35800
11.40000,-1.90000,-2.36635
11.45000,-1.90840,-2.37540
11.50000,-1.91666,-2.38857
11.55000,-1.92493,-2.39450
11.60000,-1.93333,-2.40636
11.65000,-1.94186,-2.41210
11.70000,-1.95026,-2.42404
11.75000,-1.95866,-2.43223
11.80000,-1.96693,-2.44094
11.85000,-1.97533,-2.44636
11.90000,-1.98360,-2.45991
11.95000,-1.99186,-2.46257
12.00000,-2.00040,-2.45093
12.05000,-2.00880,-2.38822
12.10000,-2.01680,-2.40130
12.15000,-2.02506,-2.41435
12.20000,-2.03346,-2.41220
12.25000,-2.04160,-2.41094
12.30000,-2.04986,-2.42193
12.35000,-2.05853,-2.43068
12.40000,-2.06680,-2.44325
12.45000,-2.07506,-2.44862
12.50000,-2.08359,-2.46139
12.55000,-2.09186,-2.46997
12.60000,-2.10013,-2.47899
12.65000,-2.10853,-2.46668
12.70000,-2.11693,-2.46826
12.75000,-2.12533,-2.48194
12.80000,-2.13373,-2.49620
12.85000,-2.14173,-2.50332
12.90000,-2.15026,-2.51408
12.95000,-2.15866,-2.52213
13.00000,-2.16666,-2.53041
13.05000,-2.17506,-2.54364
13.10000,-2.18359,-2.55342
13.15000,-2.19173,-2.55966
13.20000,-2.20013,-2.56541
13.25000,-2.20879,-2.57782
13.30000,-2.21693,-2.58879
13.35000,-2.22506,-2.59848
13.40000,-2.23373,-2.60998
13.45000,-2.24213,-2.61994
13.50000,-2.25026,-2.62984
13.55000,-2.25866,-2.64096
13.60000,-2.26706,-2.65011
13.65000,-2.27519,-2.66438
13.70000,-2.28346,-2.67003
13.75000,-2.29186,-2.68557
13.80000,-2.30026,-2.69141
13.85000,-2.30853,-2.70368
13.90000,-2.31666,-2.70993
13.95000,-2.32506,-2.72194
14.00000,-2.33346,-2.73075
14.05000,-2.34173,-2.74381
14.10000,-2.35013,-2.75068
14.15000,-2.35879,-2.76528
14.20000,-2.36706,-2.77305
14.25000,-2.37519,-2.78268
14.30000,-2.38373,-2.79204
14.35000,-2.39213,-2.80280
14.40000,-2.40013,-2.81318
14.45000,-2.40853,-2.82158
14.50000,-2.41693,-2.83173
14.55000,-2.42506,-2.84015
14.60000,-2.43333,-2.85089
14.65000,-2.44186,-2.85884
14.70000,-2.45013,-2.86809
14.75000,-2.45839,-2.87737
14.80000,-2.46679,-2.88885
14.85000,-2.47519,-2.89495
14.90000,-2.48373,-2.90740
14.95000,-2.49199,-2.91467
15.00000,-2.50013,-2.92428
15.05000,-2.50866,-2.93236
15.10000,-2.51693,-2.94359
15.15000,-2.52519,-2.95072
15.20000,-2.53359,-2.95865
15.25000,-2.54199,-2.96998
15.30000,-2.54999,-2.97553
15.35000,-2.55839,-2.98637
15.40000,-2.56693,-2.99213
15.45000,-2.57506,-3.00307
15.50000,-2.58333,-3.00944
15.55000,-2.59186,-3.01992
15.60000,-2.60013,-3.02707
15.65000,-2.60839,-3.03654
15.70000,-2.61693,-3.04469
15.75000,-2.62533,-3.05257
15.80000,-2.63359,-3.06090
15.85000,-2.64213,-3.06959
15.90000,-2.65026,-3.07695
15.95000,-2.65866,-3.08639
16.00000,-2.66706,-3.09355
16.05000,-2.67506,-3.10315
16.10000,-2.68373,-3.10913
16.15000,-2.69199,-3.11903
16.20000,-2.70013,-3.12601
16.25000,-2.70853,-3.13384
16.30000,-2.71693,-3.14198
16.35000,-2.72506,-3.15004
16.40000,-2.73333,-3.15694
16.45000,-2.74199,-3.16491
16.50000,-2.75026,-3.17309
16.55000,-2.75839,-3.17966
16.60000,-2.76693,-3.18685
16.65000,-2.77533,-3.19553
16.70000,-2.78359,-3.20174
16.75000,-2.79213,-3.21100
16.80000,-2.80039,-3.21651
16.85000,-2.80866,-3.22554
16.90000,-2.81693,-3.23151
16.95000,-2.82519,-3.23995
17.00000,-2.83346,-3.24658
17.05000,-2.84173,-3.25463
17.10000,-2.84999,-3.26205
17.15000,-2.85853,-3.26922
17.20000,-2.86693,-3.27739
17.25000,-2.87519,-3.28497
17.30000,-2.88346,-3.29252
17.35000,-2.89199,-3.29931
17.40000,-2.90039,-3.30821
17.45000,-2.90853,-3.31438
17.50000,-2.91706,-3.32202
17.55000,-2.92533,-3.32935
17.60000,-2.93333,-3.33647
17.65000,-2.94173,-3.34226
17.70000,-2.95039,-3.35123
17.75000,-2.95839,-3.35682
17.80000,-2.96666,-3.36581
17.85000,-2.97506,-3.37052
17.90000,-2.98319,-3.38052
17.95000,-2.99159,-3.38427
18.00000,-3.00013,-3.39545
18.05000,-3.00866,-3.40047
18.10000,-3.01706,-3.40926
18.15000,-3.02546,-3.41676
18.20000,-3.03359,-3.42425
18.25000,-3.04213,-3.42955
18.30000,-3.05039,-3.43764
18.35000,-3.05853,-3.44432
18.40000,-3.06706,-3.45040
18.45000,-3.07533,-3.45815
18.50000,-3.08333,-3.46493
18.55000,-3.09173,-3.46995
18.60000,-3.10026,-3.47935
18.65000,-3.10839,-3.48414
18.70000,-3.11666,-3.49268
18.75000,-3.12533,-3.49734
18.80000,-3.13346,-3.50595
18.85000,-3.14173,-3.51202
18.90000,-3.15026,-3.51968
18.95000,-3.15866,-3.52636
19.00000,-3.16693,-3.53273
19.05000,-3.17533,-3.54040
19.10000,-3.18359,-3.54631
19.15000,-3.19199,-3.55424
19.20000,-3.20039,-3.55999
19.25000,-3.20853,-3.56586
19.30000,-3.21706,-3.57378
19.35000,-3.22533,-3.57829
19.40000,-3.23346,-3.58629
19.45000,-3.24186,-3.59101
19.50000,-3.25026,-3.59693
19.55000,-3.25839,-3.60360
19.60000,-3.26666,-3.60860
19.65000,-3.27533,-3.61557
19.70000,-3.28359,-3.62057
19.75000,-3.29173,-3.62732
19.80000,-3.30039,-3.63126
19.85000,-3.30866,-3.64067
19.90000,-3.31693,-3.64227
19.95000,-3.32546,-3.65116
20.00000,-3.33386,-3.65591
20.05000,-3.34199,-3.66088
20.10000,-3.35026,-3.66662
20.15000,-3.35853,-3.67282
20.20000,-3.36693,-3.67769
20.25000,-3.37519,-3.68361
20.30000,-3.38333,-3.68840
20.35000,-3.39186,-3.69514
20.40000,-3.40026,-3.69975
20.45000,-3.40852,-3.70648
20.50000,-3.41679,-3.71031
20.55000,-3.42533,-3.71754
20.60000,-3.43359,-3.72216
20.65000,-3.44186,-3.72826
20.70000,-3.45039,-3.73279
20.75000,-3.45879,-3.73944
20.80000,-3.46679,-3.74367
20.85000,-3.47506,-3.74703
20.90000,-3.48372,-3.75277
20.95000,-3.49186,-3.75662
21.00000,-3.50012,-3.76204
21.05000,-3.50852,-3.76445
21.10000,-3.51679,-3.77210
21.15000,-3.52506,-3.77453
21.20000,-3.53346,-3.77993
21.25000,-3.54186,-3.78425
21.30000,-3.55026,-3.78966
21.35000,-3.55852,-3.79276
21.40000,-3.56679,-3.79823
21.45000,-3.57546,-3.80135
21.50000,-3.58372,-3.80663
21.55000,-3.59172,-3.80844
21.60000,-3.60026,-3.81355
21.65000,-3.60879,-3.81662
21.70000,-3.61679,-3.82070
21.75000,-3.62506,-3.82291
21.80000,-3.63359,-3.82964
21.85000,-3.64159,-3.83224
21.90000,-3.64986,-3.83729
21.95000,-3.65852,-3.84135
22.00000,-3.66692,-3.84775
22.05000,-3.67519,-3.85035
22.10000,-3.68372,-3.85779
22.15000,-3.69212,-3.86216
22.20000,-3.70039,-3.86799
22.25000,-3.70879,-3.87236
22.30000,-3.71692,-3.87558
22.35000,-3.72532,-3.88435
22.40000,-3.73359,-3.88424
22.45000,-3.74186,-3.89109
22.50000,-3.75039,-3.89723
22.55000,-3.75852,-3.90141
22.60000,-3.76666,-3.90566
22.65000,-3.77506,-3.91049
22.70000,-3.78359,-3.91622
22.75000,-3.79172,-3.92131
22.80000,-3.79999,-3.92652
22.85000,-3.80866,-3.92919
22.90000,-3.81692,-3.93637
22.95000,-3.82506,-3.93900
23.00000,-3.83372,-3.94481
23.05000,-3.84199,-3.95098
23.10000,-3.85026,-3.95240
23.15000,-3.85866,-3.95941
23.20000,-3.86692,-3.96324
23.25000,-3.87506,-3.96722
23.30000,-3.88332,-3.97138
23.35000,-3.89172,-3.97607
23.40000,-3.90012,-3.98122
23.45000,-3.90839,-3.98567
23.50000,-3.91652,-3.99087
23.55000,-3.92506,-3.99362
23.60000,-3.93359,-4.00017
23.65000,-3.94172,-4.00588
23.70000,-3.95012,-4.00759
23.75000,-3.95879,-4.01377
23.80000,-3.96706,-4.01773
23.85000,-3.97506,-4.02208
23.90000,-3.98372,-4.02618
23.95000,-3.99212,-4.03037
24.00000,-4.00012,-4.03467
24.05000,-4.00852,-4.03586
24.10000,-4.01719,-4.04485
24.15000,-4.02519,-4.04478
24.20000,-4.03332,-4.05209
24.25000,-4.04186,-4.05338
24.30000,-4.05012,-4.05741
24.35000,-4.05839,-4.06242
24.40000,-4.06679,-4.06558
24.45000,-4.07519,-4.07172
24.50000,-4.08372,-4.07221
24.55000,-4.09199,-4.07957
24.60000,-4.10026,-4.08070
24.65000,-4.10879,-4.08773
24.70000,-4.11706,-4.08929
24.75000,-4.12519,-4.09323
24.80000,-4.13372,-4.09671
24.85000,-4.14199,-4.10205
24.90000,-4.15012,-4.10368
24.95000,-4.15839,-4.10500
25.00000,-4.16692,-4.11139
25.05000,-4.17492,-4.11294
25.10000,-4.18319,-4.11732
25.15000,-4.19199,-4.11835
25.20000,-4.20012,-4.12420
25.25000,-4.20839,-4.12673
25.30000,-4.21679,-4.12973
25.35000,-4.22532,-4.13358
25.40000,-4.23359,-4.13532
25.45000,-4.24212,-4.14104
25.50000,-4.25039,-4.14472
25.55000,-4.25866,-4.14737
25.60000,-4.26706,-4.15016
25.65000,-4.27519,-4.15253
25.70000,-4.28372,-4.15690
25.75000,-4.29199,-4.15898
25.80000,-4.29999,-4.16461
25.85000,-4.30839,-4.16281
25.90000,-4.31679,-4.17029
25.95000,-4.32492,-4.17002
26.00000,-4.33332,-4.17675
26.05000,-4.34212,-4.17821
26.10000,-4.35039,-4.18160
26.15000,-4.35852,-4.18614
26.20000,-4.36719,-4.18696
26.25000,-4.37532,-4.19202
26.30000,-4.38359,-4.19378
26.35000,-4.39212,-4.19535
26.40000,-4.40039,-4.20092
26.45000,-4.40852,-4.19966
26.50000,-4.41679,-4.20689
26.55000,-4.42519,-4.20516
26.60000,-4.43359,-4.21263
26.65000,-4.44186,-4.21215
26.70000,-4.45012,-4.21703
26.75000,-4.45852,-4.21884
26.80000,-4.46692,-4.22162
26.85000,-4.47519,-4.22597
26.90000,-4.48346,-4.22779
26.95000,-4.49212,-4.23065
27.00000,-4.50039,-4.23550
27.05000,-4.50852,-4.23603
27.10000,-4.51706,-4.24097
27.15000,-4.52546,-4.24294
27.20000,-4.53346,-4.24589
27.25000,-4.54172,-4.24855
27.30000,-4.55026,-4.25143
27.35000,-4.55826,-4.25565
27.40000,-4.56666,-4.25671
27.45000,-4.57519,-4.26220
27.50000,-4.58346,-4.26384
27.55000,-4.59172,-4.26823
27.60000,-4.60012,-4.27008
27.65000,-4.60852,-4.27477
27.70000,-4.61706,-4.27672
27.75000,-4.62532,-4.28124
27.80000,-4.63346,-4.28247
27.85000,-4.64199,-4.28608
27.90000,-4.65039,-4.28977
27.95000,-4.65852,-4.29235
28.00000,-4.66706,-4.29481
28.05000,-4.67546,-4.29857
28.10000,-4.68332,-4.30088
28.15000,-4.69172,-4.30317
28.20000,-4.70039,-4.30699
28.25000,-4.70839,-4.30975
28.30000,-4.71666,-4.31172
28.35000,-4.72519,-4.31483
28.40000,-4.73359,-4.31826
28.45000,-4.74172,-4.32141
28.50000,-4.75026,-4.32356
28.55000,-4.75866,-4.32734
28.60000,-4.76692,-4.32945
28.65000,-4.77532,-4.33205
28.70000,-4.78359,-4.33534
28.75000,-4.79212,-4.33647
28.80000,-4.80039,-4.33971
28.85000,-4.80852,-4.34233
28.90000,-4.81692,-4.34313
28.95000,-4.82519,-4.34706
29.00000,-4.83332,-4.34890
29.05000,-4.84172,-4.35137
29.10000,-4.85025,-4.35347
29.15000,-4.85839,-4.35755
29.20000,-4.86679,-4.35827
29.25000,-4.87546,-4.36335
29.30000,-4.88359,-4.36487
29.35000,-4.89172,-4.36777
29.40000,-4.90039,-4.36965
29.45000,-4.90879,-4.37519
29.50000,-4.91679,-4.37513
29.55000,-4.92532,-4.37971
29.60000,-4.93359,-4.38021
29.65000,-4.94185,-4.38557
29.70000,-4.95012,-4.38423
29.75000,-4.95839,-4.38992
29.80000,-4.96679,-4.39022
29.85000,-4.97505,-4.39483
29.90000,-4.98319,-4.39532
29.95000,-4.99172,-4.39975
30.00000,-5.00025,-4.40131
30.05000,-5.00852,-4.40574
30.10000,-5.01692,-4.40638
30.15000,-5.02559,-4.41080
30.20000,-5.03385,-4.41240
30.25000,-5.04185,-4.41527
30.30000,-5.05039,-4.41583
30.35000,-5.05892,-4.41975
30.40000,-5.06692,-4.42044
30.45000,-5.07532,-4.42348
30.50000,-5.08372,-4.42482
30.55000,-5.09172,-4.42677
30.60000,-5.10012,-4.43137
30.65000,-5.10852,-4.43207
30.70000,-5.11679,-4.43344
30.75000,-5.12492,-4.43697
30.80000,-5.13345,-4.44036
30.85000,-5.14185,-4.44166
30.90000,-5.15025,-4.44590
30.95000,-5.15865,-4.44799
31.00000,-5.16679,-4.45131
31.05000,-5.17545,-4.45338
31.10000,-5.18372,-4.45512
31.15000,-5.19185,-4.45834
31.20000,-5.20025,-4.45898
31.25000,-5.20879,-4.46553
31.30000,-5.21665,-4.46752
31.35000,-5.22505,-4.46723
31.40000,-5.23359,-4.47253
31.45000,-5.24159,-4.47286
31.50000,-5.24985,-4.47740
31.55000,-5.25852,-4.47844
31.60000,-5.26679,-4.48020
31.65000,-5.27505,-4.48662
31.70000,-5.28359,-4.48462
31.75000,-5.29199,-4.48753
31.80000,-5.30025,-4.49200
31.85000,-5.30865,-4.49226
31.90000,-5.31692,-4.49533
31.95000,-5.32545,-4.49886
32.00000,-5.33372,-4.49872
32.05000,-5.34185,-4.50030
32.10000,-5.35025,-4.50327
32.15000,-5.35865,-4.50197
32.20000,-5.36665,-4.50589
32.25000,-5.37505,-4.50868
32.30000,-5.38359,-4.50687
32.35000,-5.39172,-4.51108
32.40000,-5.39999,-4.51102
32.45000,-5.40879,-4.51189
32.50000,-5.41705,-4.51797
32.55000,-5.42519,-4.51443
32.60000,-5.43385,-4.51632
32.65000,-5.44212,-4.51927
32.70000,-5.45025,-4.51725
32.75000,-5.45879,-4.52228
32.80000,-5.46705,-4.52047
32.85000,-5.47519,-4.52023
32.90000,-5.48359,-4.52517
32.95000,-5.49185,-4.52211
33.00000,-5.50025,-4.52561
33.05000,-5.50865,-4.52499
33.10000,-5.51679,-4.52789
33.15000,-5.52519,-4.52690
33.20000,-5.53372,-4.52993
33.25000,-5.54185,-4.52775
33.30000,-5.55012,-4.53223
33.35000,-5.55879,-4.53379
33.40000,-5.56705,-4.53223
33.45000,-5.57505,-4.53842
33.50000,-5.58359,-4.53418
33.55000,-5.59212,-4.54075
33.60000,-5.60012,-4.54046
33.65000,-5.60839,-4.54114
33.70000,-5.61692,-4.54060
33.75000,-5.62505,-4.54811
33.80000,-5.63332,-4.54055
33.85000,-5.64159,-4.55087
33.90000,-5.64985,-4.54557
33.95000,-5.65825,-4.55035
34.00000,-5.66692,-4.55099
34.05000,-5.67519,-4.55705
34.10000,-5.68359,-4.55069
34.15000,-5.69199,-4.56306
34.20000,-5.70012,-4.54984
34.25000,-5.70865,-4.57011
34.30000,-5.71705,-4.55253
34.35000,-5.72519,-4.57383
34.40000,-5.73359,-4.55195
34.45000,-5.74199,-4.57785
34.50000,-5.75012,-4.56006
34.55000,-5.75839,-4.57571
34.60000,-5.76692,-4.56251
34.65000,-5.77492,-4.57700
34.70000,-5.78319,-4.56993
34.75000,-5.79185,-4.57804
34.80000,-5.80012,-4.57313
34.85000,-5.80825,-4.58102
34.90000,-5.81692,-4.57746
34.95000,-5.82532,-4.58317
35.00000,-5.83359,-4.58045
35.05000,-5.84199,-4.58662
35.10000,-5.85039,-4.57801
35.15000,-5.85879,-4.59641
35.20000,-5.86705,-4.57774
35.25000,-5.87505,-4.59758
35.30000,-5.88359,-4.58205
35.35000,-5.89199,-4.59569
35.40000,-5.89999,-4.58898
35.45000,-5.90839,-4.59634
35.50000,-5.91692,-4.59288
35.55000,-5.92505,-4.59819
35.60000,-5.93345,-4.59756
35.65000,-5.94212,-4.60223
35.70000,-5.95025,-4.60325
35.75000,-5.95839,-4.60311
35.80000,-5.96705,-4.60385
35.85000,-5.97545,-4.60853
35.90000,-5.98345,-4.60652
35.95000,-5.99185,-4.60793
36.00000,-6.00039,-4.61026
36.05000,-6.00852,-4.60880
36.10000,-6.01692,-4.61312
36.15000,-6.02519,-4.61268
36.20000,-6.03359,-4.60787
36.25000,-6.04185,-4.61810
36.30000,-6.05012,-4.61022
36.35000,-6.05852,-4.61685
36.40000,-6.06692,-4.61166
36.45000,-6.07519,-4.62024
36.50000,-6.08345,-4.61170
36.55000,-6.09199,-4.62260
36.60000,-6.10038,-4.61410
36.65000,-6.10852,-4.62650
36.70000,-6.11692,-4.61550
36.75000,-6.12545,-4.62660
36.80000,-6.13345,-4.61752
36.85000,-6.14185,-4.62949
36.90000,-6.15025,-4.62081
36.95000,-6.15838,-4.62647
37.00000,-6.16665,-4.62561
37.05000,-6.17519,-4.62652
37.10000,-6.18345,-4.63103
37.15000,-6.19172,-4.62527
37.20000,-6.20012,-4.62885
37.25000,-6.20852,-4.63536
37.30000,-6.21692,-4.62578
37.35000,-6.22532,-4.64310
37.40000,-6.23358,-4.62851
37.45000,-6.24198,-4.64430
37.50000,-6.25025,-4.63285
37.55000,-6.25838,-4.64636
37.60000,-6.26692,-4.63613
37.65000,-6.27545,-4.64569
37.70000,-6.28345,-4.64302
37.75000,-6.29172,-4.64584
37.80000,-6.30025,-4.64797
37.85000,-6.30825,-4.64771
37.90000,-6.31652,-4.65108
37.95000,-6.32532,-4.65349
38.00000,-6.33358,-4.65622
38.05000,-6.34185,-4.66039
38.10000,-6.35038,-4.65780
38.15000,-6.35878,-4.66687
38.20000,-6.36692,-4.66208
38.25000,-6.37545,-4.67102
38.30000,-6.38372,-4.66689
38.35000,-6.39212,-4.67454
38.40000,-6.40025,-4.67284
38.45000,-6.40838,-4.67768
38.50000,-6.41705,-4.68074
38.55000,-6.42532,-4.67908
38.60000,-6.43332,-4.68740
38.65000,-6.44172,-4.68339
38.70000,-6.45025,-4.69149
38.75000,-6.45838,-4.68885
38.80000,-6.46665,-4.69573
38.85000,-6.47545,-4.69441
38.90000,-6.48358,-4.69989
38.95000,-6.49172,-4.70253
39.00000,-6.50038,-4.70139
39.05000,-6.50878,-4.70870
39.10000,-6.51692,-4.70711
39.15000,-6.52532,-4.71133
39.20000,-6.53372,-4.71163
39.25000,-6.54185,-4.71479
39.30000,-6.55012,-4.71711
39.35000,-6.55838,-4.71633
39.40000,-6.56678,-4.72089
39.45000,-6.57505,-4.71982
39.50000,-6.58332,-4.72676
39.55000,-6.59172,-4.72547
39.60000,-6.60025,-4.72915
39.65000,-6.60852,-4.73331
39.70000,-6.61678,-4.73221
39.75000,-6.62532,-4.73805
39.80000,-6.63358,-4.73958
39.85000,-6.64172,-4.73980
39.90000,-6.65025,-4.74474
39.95000,-6.65878,-4.74405
40.00000,-6.66692,-4.75100
40.05000,-6.67518,-4.74709
40.10000,-6.68372,-4.75369
40.15000,-6.69172,-4.75355
40.20000,-6.70012,-4.75774
40.25000,-6.70852,-4.75699
40.30000,-6.71665,-4.75967
40.35000,-6.72505,-4.76174
40.40000,-6.73345,-4.76453
40.45000,-6.74172,-4.76560
40.50000,-6.75025,-4.76908
40.55000,-6.75852,-4.76906
40.60000,-6.76678,-4.77282
40.65000,-6.77545,-4.77480
40.70000,-6.78372,-4.77819
40.75000,-6.79172,-4.77938
40.80000,-6.80025,-4.78198
40.85000,-6.80865,-4.78464
40.90000,-6.81678,-4.78895
40.95000,-6.82505,-4.78860
41.00000,-6.83358,-4.79248
41.05000,-6.84172,-4.79689
41.10000,-6.84998,-4.79637
41.15000,-6.85852,-4.80255
41.20000,-6.86692,-4.80165
41.25000,-6.87505,-4.80721
41.30000,-6.88372,-4.80861
41.35000,-6.89198,-4.81304
41.40000,-6.90025,-4.81349
41.45000,-6.90865,-4.81783
41.50000,-6.91692,-4.81775
41.55000,-6.92545,-4.82274
41.60000,-6.93372,-4.82278
41.65000,-6.94185,-4.82623
41.70000,-6.95025,-4.82646
41.75000,-6.95865,-4.82960
41.80000,-6.96665,-4.83254
41.85000,-6.97505,-4.83102
41.90000,-6.98345,-4.83721
41.95000,-6.99172,-4.83547
42.00000,-7.00012,-4.84247
42.05000,-7.00865,-4.83877
42.10000,-7.01692,-4.84835
42.15000,-7.02518,-4.84239
42.20000,-7.03385,-4.85219
42.25000,-7.04212,-4.84754
42.30000,-7.05025,-4.85373
42.35000,-7.05878,-4.84955
42.40000,-7.06705,-4.85332
42.45000,-7.07518,-4.85036
42.50000,-7.08358,-4.85471
42.55000,-7.09198,-4.85489
42.60000,-7.10025,-4.85460
42.65000,-7.10838,-4.85874
42.70000,-7.11665,-4.85515
42.75000,-7.12505,-4.86177
42.80000,-7.13345,-4.85838
42.85000,-7.14172,-4.86298
42.90000,-7.15012,-4.86218
42.95000,-7.15865,-4.86633
43.00000,-7.16705,-4.86722
43.05000,-7.17518,-4.86642
43.10000,-7.18372,-4.87023
43.15000,-7.19212,-4.86988
43.20000,-7.20012,-4.87291
43.25000,-7.20852,-4.87112
43.30000,-7.21692,-4.87639
43.35000,-7.22505,-4.87466
43.40000,-7.23332,-4.87747
43.45000,-7.24198,-4.87824
43.50000,-7.25012,-4.88111
43.55000,-7.25852,-4.88100
43.60000,-7.26692,-4.88494
43.65000,-7.27532,-4.88458
43.70000,-7.28372,-4.88757
43.75000,-7.29198,-4.88908
43.80000,-7.30025,-4.88839
43.85000,-7.30878,-4.89196
43.90000,-7.31705,-4.89101
43.95000,-7.32505,-4.89415
44.00000,-7.33372,-4.89099
44.05000,-7.34212,-4.89915
44.10000,-7.34998,-4.89211
44.15000,-7.35838,-4.89845
44.20000,-7.36692,-4.89683
44.25000,-7.37492,-4.89970
44.30000,-7.38332,-4.89770
44.35000,-7.39198,-4.90184
44.40000,-7.40012,-4.90101
44.45000,-7.40825,-4.90123
44.50000,-7.41692,-4.90144
44.55000,-7.42532,-4.90376
44.60000,-7.43372,-4.90290
44.65000,-7.44212,-4.90484
44.70000,-7.45025,-4.90311
44.75000,-7.45865,-4.90377
44.80000,-7.46692,-4.90560
44.85000,-7.47518,-4.90541
44.90000,-7.48372,-4.90433
44.95000,-7.49198,-4.90810
45.00000,-7.49998,-4.90526
45.05000,-7.50838,-4.90854
45.10000,-7.51691,-4.90740
45.15000,-7.52505,-4.91181
45.20000,-7.53345,-4.90894
45.25000,-7.54211,-4.91239
45.30000,-7.55025,-4.91272
45.35000,-7.55838,-4.91256
45.40000,-7.56691,-4.91390
45.45000,-7.57531,-4.91510
45.50000,-7.58358,-4.91631
45.55000,-7.59198,-4.91731
45.60000,-7.60038,-4.91837
45.65000,-7.60851,-4.92007
45.70000,-7.61678,-4.91877
45.75000,-7.62505,-4.92009
45.80000,-7.63345,-4.92051
45.85000,-7.64185,-4.92131
45.90000,-7.64998,-4.92350
45.95000,-7.65851,-4.92355
46.00000,-7.66691,-4.92587
46.05000,-7.67518,-4.92597
46.10000,-7.68345,-4.92724
46.15000,-7.69211,-4.92899
46.20000,-7.70038,-4.93005
46.25000,-7.70851,-4.93248
46.30000,-7.71691,-4.93122
46.35000,-7.72545,-4.93647
46.40000,-7.73345,-4.93353
46.45000,-7.74171,-4.93701
46.50000,-7.75038,-4.93586
46.55000,-7.75838,-4.93929
46.60000,-7.76665,-4.93870
46.65000,-7.77518,-4.94256
46.70000,-7.78331,-4.94142
46.75000,-7.79171,-4.94434
46.80000,-7.80011,-4.94398
46.85000,-7.80851,-4.94826
46.90000,-7.81691,-4.94708
46.95000,-7.82531,-4.95219
47.00000,-7.83358,-4.94864
47.05000,-7.84211,-4.95479
47.10000,-7.85038,-4.95263
47.15000,-7.85851,-4.95528
47.20000,-7.86705,-4.95430
47.25000,-7.87545,-4.95809
47.30000,-7.88331,-4.95678
47.35000,-7.89171,-4.95635
47.40000,-7.90025,-4.95772
47.45000,-7.90838,-4.96058
47.50000,-7.91651,-4.96073
47.55000,-7.92518,-4.96173
47.60000,-7.93345,-4.96363
47.65000,-7.94158,-4.96503
47.70000,-7.95011,-4.96576
47.75000,-7.95851,-4.96734
47.80000,-7.96691,-4.96942
47.85000,-7.97531,-4.97082
47.90000,-7.98358,-4.97282
47.95000,-7.99198,-4.97166
48.00000,-8.00038,-4.97619
48.05000,-8.00838,-4.97598
48.10000,-8.01691,-4.97547
48.15000,-8.02518,-4.97826
48.20000,-8.03331,-4.97762
48.25000,-8.04171,-4.98024
48.30000,-8.05038,-4.98063
48.35000,-8.05838,-4.98311
48.40000,-8.06678,-4.98201
48.45000,-8.07545,-4.98290
48.50000,-8.08358,-4.98565
48.55000,-8.09171,-4.98653
48.60000,-8.10038,-4.98665
48.65000,-8.10878,-4.98806
48.70000,-8.11691,-4.98818
48.75000,-8.12545,-4.98955
48.80000,-8.13371,-4.99010
48.85000,-8.14198,-4.99025
48.90000,-8.15025,-4.98853
48.95000,-8.15865,-4.99296
49.00000,-8.16691,-4.98933
49.05000,-8.17518,-4.99268
49.10000,-8.18331,-4.98870
49.15000,-8.19185,-4.99400
49.20000,-8.20038,-4.99193
49.25000,-8.20851,-4.99589
49.30000,-8.21678,-4.99278
49.35000,-8.22531,-4.99506
49.40000,-8.23358,-4.99637
49.45000,-8.24171,-4.99678
49.50000,-8.25025,-4.99534
49.55000,-8.25878,-4.99753
49.60000,-8.26678,-4.99665
49.65000,-8.27505,-4.99922
49.70000,-8.28345,-4.99596
49.75000,-8.29158,-4.99986
49.80000,-8.29985,-4.99273
49.85000,-8.30838,-5.00344
49.90000,-8.31678,-4.99516
49.95000,-8.32505,-5.00401
50.00000,-8.33358,-4.99670
50.05000,-8.34198,-5.00746
50.10000,-8.35038,-4.99982
50.15000,-8.35865,-5.00695
50.20000,-8.36691,-4.99961
50.25000,-8.37545,-5.00636
50.30000,-8.38358,-5.00215
50.35000,-8.39171,-5.00908
50.40000,-8.40025,-5.00172
50.45000,-8.40878,-5.01114
50.50000,-8.41678,-5.00351
50.55000,-8.42518,-5.01112
50.60000,-8.43358,-5.00560
50.65000,-8.44171,-5.01193
50.70000,-8.44998,-5.00776
50.75000,-8.45865,-5.01299
50.80000,-8.46691,-5.01120
50.85000,-8.47505,-5.01650
50.90000,-8.48358,-5.01300
50.95000,-8.49198,-5.01818
51.00000,-8.50038,-5.01586
51.05000,-8.50878,-5.02086
51.10000,-8.51705,-5.01654
51.15000,-8.52531,-5.02114
51.20000,-8.53371,-5.01901
51.25000,-8.54185,-5.02269
51.30000,-8.55025,-5.01850
51.35000,-8.55865,-5.02390
51.40000,-8.56665,-5.02021
51.45000,-8.57505,-5.02206
51.50000,-8.58358,-5.02233
51.55000,-8.59171,-5.02399
51.60000,-8.60011,-5.02253
51.65000,-8.60865,-5.02495
51.70000,-8.61691,-5.02626
51.75000,-8.62505,-5.02482
51.80000,-8.63371,-5.02680
51.85000,-8.64211,-5.02821
51.90000,-8.65011,-5.02743
51.95000,-8.65865,-5.02715
52.00000,-8.66705,-5.02975
52.05000,-8.67518,-5.02845
52.10000,-8.68358,-5.02970
52.15000,-8.69198,-5.02993
52.20000,-8.70025,-5.03105
52.25000,-8.70851,-5.03007
52.30000,-8.71678,-5.03136
52.35000,-8.72505,-5.03031
52.40000,-8.73358,-5.03210
52.45000,-8.74185,-5.03143
52.50000,-8.75011,-5.03307
52.55000,-8.75878,-5.03216
52.60000,-8.76705,-5.03384
52.65000,-8.77518,-5.03268
52.70000,-8.78371,-5.03327
52.75000,-8.79211,-5.03340
52.80000,-8.80024,-5.03487
52.85000,-8.80851,-5.03388
52.90000,-8.81705,-5.03606
52.95000,-8.82505,-5.03544
53.00000,-8.83345,-5.03614
53.05000,-8.84185,-5.03580
53.10000,-8.84998,-5.03636
53.15000,-8.85824,-5.03466
53.20000,-8.86678,-5.03715
53.25000,-8.87518,-5.03558
53.30000,-8.88358,-5.03790
53.35000,-8.89198,-5.03645
53.40000,-8.90011,-5.03720
53.45000,-8.90865,-5.03704
53.50000,-8.91704,-5.03753
53.55000,-8.92518,-5.03674
53.60000,-8.93371,-5.03784
53.65000,-8.94198,-5.03823
53.70000,-8.94998,-5.03725
53.75000,-8.95824,-5.03588
53.80000,-8.96678,-5.03828
53.85000,-8.97491,-5.03861
53.90000,-8.98331,-5.03833
53.95000,-8.99184,-5.03740
54.00000,-9.00011,-5.04242
54.05000,-9.00838,-5.03940
54.10000,-9.01704,-5.04224
54.15000,-9.02531,-5.04228
54.20000,-9.03358,-5.04291
54.25000,-9.04198,-5.04194
54.30000,-9.05024,-5.04198
54.35000,-9.05864,-5.04206
54.40000,-9.06691,-5.04062
54.45000,-9.07504,-5.04071
54.50000,-9.08358,-5.03902
54.55000,-9.09198,-5.04095
54.60000,-9.10011,-5.03857
54.65000,-9.10851,-5.03931
54.70000,-9.11691,-5.03836
54.75000,-9.12504,-5.03996
54.80000,-9.13344,-5.03681
54.85000,-9.14211,-5.04186
54.90000,-9.15024,-5.03769
54.95000,-9.15851,-5.04060
55.00000,-9.16704,-5.03753
55.05000,-9.17544,-5.04089
55.10000,-9.18358,-5.03647
55.15000,-9.19198,-5.04012
55.20000,-9.20038,-5.03624
55.25000,-9.20851,-5.03859
55.30000,-9.21691,-5.03515
55.35000,-9.22531,-5.03725
55.40000,-9.23358,-5.03586
55.45000,-9.24184,-5.03513
55.50000,-9.25011,-5.03433
55.55000,-9.25851,-5.03404
55.60000,-9.26691,-5.03388
55.65000,-9.27518,-5.03363
55.70000,-9.28358,-5.03269
55.75000,-9.29211,-5.02985
55.80000,-9.30038,-5.03478
55.85000,-9.30851,-5.02954
55.90000,-9.31704,-5.03220
55.95000,-9.32544,-5.03069
56.00000,-9.33344,-5.03064
56.05000,-9.34184,-5.02763
56.10000,-9.35038,-5.03116
56.15000,-9.35851,-5.02763
56.20000,-9.36678,-5.03081
56.25000,-9.37518,-5.02864
56.30000,-9.38344,-5.02978
56.35000,-9.39171,-5.02876
56.40000,-9.40011,-5.02872
56.45000,-9.40851,-5.02817
56.50000,-9.41704,-5.03070
56.55000,-9.42531,-5.02977
56.60000,-9.43358,-5.02946
56.65000,-9.44211,-5.02943
56.70000,-9.45038,-5.02960
56.75000,-9.45838,-5.03104
56.80000,-9.46691,-5.02825
56.85000,-9.47531,-5.03210
56.90000,-9.48344,-5.02977
56.95000,-9.49184,-5.03090
57.00000,-9.50024,-5.03033
57.05000,-9.50838,-5.03262
57.10000,-9.51664,-5.02934
57.15000,-9.52531,-5.03228
57.20000,-9.53344,-5.03082
57.25000,-9.54158,-5.03085
57.30000,-9.55011,-5.03064
57.35000,-9.55838,-5.03090
57.40000,-9.56664,-5.03048
57.45000,-9.57504,-5.03125
57.50000,-9.58331,-5.03127
57.55000,-9.59184,-5.03207
57.60000,-9.60024,-5.03229
57.65000,-9.60824,-5.03283
57.70000,-9.61678,-5.03107
57.75000,-9.62518,-5.03250
57.80000,-9.63318,-5.03348
57.85000,-9.64171,-5.03219
57.90000,-9.65024,-5.03360
57.95000,-9.65838,-5.03275
58.00000,-9.66664,-5.03225
58.05000,-9.67544,-5.03206
58.10000,-9.68371,-5.03438
58.15000,-9.69184,-5.03276
58.20000,-9.70038,-5.03331
58.25000,-9.70878,-5.03299
58.30000,-9.71691,-5.03278
58.35000,-9.72544,-5.03271
58.40000,-9.73371,-5.03234
58.45000,-9.74184,-5.03174
58.50000,-9.75024,-5.03105
58.55000,-9.75851,-5.03150
58.60000,-9.76691,-5.03004
58.65000,-9.77518,-5.03035
58.70000,-9.78344,-5.02996
58.75000,-9.79184,-5.02832
58.80000,-9.80024,-5.02824
58.85000,-9.80851,-5.02836
58.90000,-9.81678,-5.02682
58.95000,-9.82544,-5.02772
59.00000,-9.83371,-5.02773
59.05000,-9.84184,-5.02689
59.10000,-9.85024,-5.02436
59.15000,-9.85878,-5.02669
59.20000,-9.86678,-5.02449
59.25000,-9.87518,-5.02430
59.30000,-9.88371,-5.02307
59.35000,-9.89171,-5.02347
59.40000,-9.89998,-5.02194
59.45000,-9.90851,-5.02186
59.50000,-9.91678,-5.02111
59.55000,-9.92504,-5.02010
59.60000,-9.93344,-5.02021
59.65000,-9.94184,-5.01939
59.70000,-9.95024,-5.01882
59.75000,-9.95864,-5.01960
59.80000,-9.96678,-5.01739
59.85000,-9.97531,-5.01805
59.90000,-9.98358,-5.01835
59.95000,-9.99171,-5.01781
60.00000,-10.00024,-5.01687
60.05000,-10.00864,-5.01935
60.10000,-10.01664,-5.01927
60.15000,-10.02504,-5.01830
60.20000,-10.03358,-5.01957
60.25000,-10.04171,-5.01999
60.30000,-10.04998,-5.02065
60.35000,-10.05851,-5.02045
60.40000,-10.06691,-5.02293
60.45000,-10.07518,-5.02207
60.50000,-10.08358,-5.02396
60.55000,-10.09198,-5.02399
60.60000,-10.10038,-5.02654
60.65000,-10.10864,-5.02533
60.70000,-10.11691,-5.02845
60.75000,-10.12531,-5.02679
60.80000,-10.13371,-5.03058
60.85000,-10.14184,-5.02976
60.90000,-10.15024,-5.03274
60.95000,-10.15864,-5.03336
61.00000,-10.16678,-5.03521
61.05000,-10.17518,-5.03712
61.10000,-10.18358,-5.03799
61.15000,-10.19171,-5.04235
61.20000,-10.20011,-5.03943
61.25000,-10.20878,-5.04549
61.30000,-10.21691,-5.04591
61.35000,-10.22517,-5.04642
61.40000,-10.23371,-5.05000
61.45000,-10.24211,-5.04823
61.50000,-10.25024,-5.05531
61.55000,-10.25864,-5.04793
61.60000,-10.26704,-5.05815
61.65000,-10.27517,-5.05086
61.70000,-10.28344,-5.05843
61.75000,-10.29171,-5.05401
61.80000,-10.30011,-5.05931
61.85000,-10.30851,-5.05837
61.90000,-10.31678,-5.06099
61.95000,-10.32504,-5.06088
62.00000,-10.33371,-5.06293
62.05000,-10.34184,-5.06458
62.10000,-10.35011,-5.06499
62.15000,-10.35878,-5.06774
62.20000,-10.36704,-5.06991
62.25000,-10.37504,-5.06762
62.30000,-10.38358,-5.07253
62.35000,-10.39211,-5.07069
62.40000,-10.40011,-5.07517
62.45000,-10.40851,-5.07331
62.50000,-10.41691,-5.07473
62.55000,-10.42504,-5.07585
62.60000,-10.43331,-5.07627
62.65000,-10.44184,-5.07856
62.70000,-10.45011,-5.07862
62.75000,-10.45837,-5.07995
62.80000,-10.46677,-5.07984
62.85000,-10.47517,-5.08358
62.90000,-10.48357,-5.08286
62.95000,-10.49184,-5.08533
63.00000,-10.50011,-5.08646
63.05000,-10.50864,-5.08701
63.10000,-10.51691,-5.08749
63.15000,-10.52504,-5.08796
63.20000,-10.53357,-5.08562
63.25000,-10.54211,-5.09176
63.30000,-10.54997,-5.08967
63.35000,-10.55837,-5.09109
63.40000,-10.56691,-5.09072
63.45000,-10.57504,-5.09146
63.50000,-10.58317,-5.09197
63.55000,-10.59184,-5.09167
63.60000,-10.60024,-5.09413
63.65000,-10.60837,-5.09172
63.70000,-10.61691,-5.09448
63.75000,-10.62531,-5.09355
63.80000,-10.63357,-5.09621
63.85000,-10.64211,-5.09479
63.90000,-10.65024,-5.09343
63.95000,-10.65877,-5.09615
64.00000,-10.66704,-5.09465
64.05000,-10.67504,-5.09634
64.10001,-10.68371,-5.09392
64.15000,-10.69197,-5.09408
64.20000,-10.69997,-5.09604
64.25000,-10.70837,-5.09131
64.30000,-10.71691,-5.09598
64.35001,-10.72504,-5.09306
64.40000,-10.73344,-5.09389
64.45000,-10.74211,-5.09374
64.50000,-10.75037,-5.09554
64.55000,-10.75851,-5.09293
64.60001,-10.76704,-5.09425
64.65000,-10.77544,-5.09292
64.70000,-10.78357,-5.09393
64.75000,-10.79197,-5.09210
64.80000,-10.80037,-5.09132
64.85001,-10.80851,-5.09136
64.90000,-10.81691,-5.09094
64.95000,-10.82517,-5.09138
65.00000,-10.83357,-5.08957
65.05000,-10.84184,-5.08967
65.10001,-10.84997,-5.08758
65.15000,-10.85851,-5.08920
65.20000,-10.86691,-5.08623
65.25000,-10.87517,-5.08980
65.30000,-10.88344,-5.08569
65.35001,-10.89197,-5.08695
65.40000,-10.90024,-5.08519
65.45000,-10.90837,-5.08535
65.50000,-10.91691,-5.08267
65.55000,-10.92557,-5.08561
65.60001,-10.93357,-5.08182
65.65000,-10.94171,-5.08185
65.70001,-10.95024,-5.08122
65.75000,-10.95824,-5.07950
65.80000,-10.96664,-5.07751
65.85001,-10.97517,-5.07994
65.90000,-10.98357,-5.07635
65.95001,-10.99171,-5.07740
66.00000,-10.99997,-5.07542
66.05000,-11.00837,-5.07537
66.10001,-11.01691,-5.07512
66.15000,-11.02531,-5.07591
66.20001,-11.03357,-5.07357
66.25000,-11.04211,-5.07612
66.30000,-11.05037,-5.07446
66.35001,-11.05851,-5.07578
66.40000,-11.06704,-5.07402
66.45001,-11.07544,-5.07650
66.50000,-11.08331,-5.07244
66.55000,-11.09171,-5.07663
66.60001,-11.10024,-5.07167
66.65000,-11.10851,-5.07693
66.70001,-11.11664,-5.07102
66.75000,-11.12517,-5.07529
66.80000,-11.13357,-5.07273
66.85001,-11.14184,-5.07682
66.90000,-11.15024,-5.07209
66.95001,-11.15864,-5.07661
67.00000,-11.16691,-5.07135
67.05000,-11.17531,-5.07670
67.10001,-11.18357,-5.07094
67.15000,-11.19211,-5.07553
67.20001,-11.20037,-5.07294
67.25000,-11.20837,-5.07327
67.30000,-11.21704,-5.06894
67.35001,-11.22531,-5.07210
67.40000,-11.23344,-5.06908
67.45001,-11.24171,-5.06960
67.50000,-11.25011,-5.06553
67.55000,-11.25824,-5.06877
67.60001,-11.26664,-5.06564
67.65000,-11.27531,-5.06539
67.70001,-11.28357,-5.06751
67.75000,-11.29184,-5.06127
67.80000,-11.30024,-5.06465
67.85001,-11.30877,-5.05949
67.90000,-11.31691,-5.06277
67.95001,-11.32531,-5.05826
68.00000,-11.33371,-5.05927
68.05000,-11.34197,-5.05444
68.10001,-11.35024,-5.05826
68.15000,-11.35851,-5.04802
68.20001,-11.36691,-5.05588
68.25000,-11.37517,-5.04587
68.30000,-11.38344,-5.05014
68.35001,-11.39184,-5.04346
68.40000,-11.40024,-5.04445
68.45001,-11.40851,-5.04350
68.50000,-11.41691,-5.04032
68.55000,-11.42531,-5.03736
68.60001,-11.43371,-5.04126
68.65000,-11.44184,-5.03007
68.70001,-11.45024,-5.03399
68.75000,-11.45877,-5.02870
68.80000,-11.46677,-5.02932
68.85001,-11.47504,-5.02196
68.90000,-11.48357,-5.02432
68.95001,-11.49184,-5.01688
69.00000,-11.49997,-5.01932
69.05000,-11.50837,-5.00923
69.10001,-11.51677,-5.01600
69.15000,-11.52504,-5.00395
69.20001,-11.53344,-5.00823
69.25000,-11.54184,-5.00307
69.30000,-11.55037,-5.00313
69.35001,-11.55850,-4.99868
69.40000,-11.56677,-4.99881
69.45001,-11.57530,-4.99425
69.50000,-11.58371,-4.99836
69.55000,-11.59171,-4.98691
69.60001,-11.60024,-4.99453
69.65000,-11.60864,-4.98444
69.70001,-11.61664,-4.98839
69.75000,-11.62504,-4.98198
69.80000,-11.63371,-4.98394
69.85001,-11.64184,-4.97972
69.90000,-11.65011,-4.97923
69.95001,-11.65864,-4.97449
70.00000,-11.66691,-4.97700
70.05000,-11.67504,-4.96719
70.10001,-11.68357,-4.97475
70.15000,-11.69197,-4.96325
70.20001,-11.70037,-4.96849
70.25000,-11.70864,-4.96110
70.30000,-11.71691,-4.96073
70.35001,-11.72544,-4.95522
70.40000,-11.73371,-4.96090
70.45001,-11.74170,-4.94982
70.50000,-11.75024,-4.95375
70.55000,-11.75850,-4.94557
70.60001,-11.76664,-4.95169
70.65000,-11.77504,-4.93842
70.70001,-11.78344,-4.94738
70.75000,-11.79157,-4.93914
70.80000,-11.79997,-4.94145
70.85001,-11.80877,-4.93707
70.90000,-11.81690,-4.93829
70.95001,-11.82517,-4.93412
71.00000,-11.83370,-4.93427
71.05000,-11.84197,-4.93014
71.10001,-11.85010,-4.93078
71.15000,-11.85864,-4.92491
71.20001,-11.86704,-4.92962
71.25000,-11.87530,-4.92307
71.30000,-11.88357,-4.92137
71.35001,-11.89170,-4.91945
71.40000,-11.90024,-4.91601
71.45001,-11.90850,-4.91477
71.50000,-11.91677,-4.90972
71.55000,-11.92504,-4.90658
71.60001,-11.93357,-4.91131
71.65000,-11.94184,-4.89850
71.70001,-11.95024,-4.90361
71.75000,-11.95864,-4.89393
71.80000,-11.96704,-4.89855
71.85001,-11.97517,-4.88772
71.90000,-11.98370,-4.88737
71.95001,-11.99210,-4.88413
72.00000,-12.00024,-4.88336
72.05000,-12.00837,-4.86981
72.10001,-12.01690,-4.88125
72.15000,-12.02504,-4.85970
72.20001,-12.03330,-4.87399
72.25000,-12.04184,-4.85548
72.30000,-12.04997,-4.86566
72.35001,-12.05837,-4.84821
72.40000,-12.06677,-4.85834
72.45001,-12.07517,-4.84252
72.50000,-12.08370,-4.85346
72.55000,-12.09197,-4.83166
72.60001,-12.10010,-4.85229
72.65000,-12.10877,-4.82038
72.70001,-12.11704,-4.84359
72.75000,-12.12504,-4.81795
72.80000,-12.13357,-4.83373
72.85001,-12.14210,-4.81366
72.90000,-12.14997,-4.82492
72.95001,-12.15837,-4.80477
73.00000,-12.16690,-4.82132
73.05000,-12.17504,-4.79067
73.10001,-12.18317,-4.82342
73.15000,-12.19184,-4.77922
73.20001,-12.20010,-4.81730
73.25000,-12.20837,-4.77951
73.30000,-12.21690,-4.80775
73.35001,-12.22530,-4.77713
73.40000,-12.23357,-4.79844
73.45001,-12.24197,-4.77408
73.50000,-12.25010,-4.79125
73.55000,-12.25864,-4.76429
73.60001,-12.26690,-4.79564
73.65000,-12.27490,-4.75401
73.70001,-12.28357,-4.78934
73.75000,-12.29197,-4.75510
73.80000,-12.29997,-4.78181
73.85001,-12.30837,-4.75070
73.90000,-12.31690,-4.77270
73.95001,-12.32504,-4.75137
74.00000,-12.33344,-4.76533
74.05000,-12.34197,-4.74438
74.10001,-12.35024,-4.76700
74.15000,-12.35837,-4.74206
74.20001,-12.36690,-4.75797
74.25000,-12.37544,-4.74552
74.30000,-12.38370,-4.75198
74.35001,-12.39197,-4.74871
74.40000,-12.40037,-4.74653
74.45001,-12.40850,-4.74596
74.50000,-12.41677,-4.74378
74.55000,-12.42504,-4.74307
74.60001,-12.43344,-4.74489
74.65000,-12.44184,-4.74429
74.70001,-12.45010,-4.74187
74.75000,-12.45850,-4.74262
74.80000,-12.46704,-4.74298
74.85001,-12.47530,-4.74401
74.90000,-12.48357,-4.73991
74.95001,-12.49210,-4.73915
75.00000,-12.50037,-4.74357
75.05000,-12.50850,-4.73615
75.10001,-12.51690,-4.74733
75.15000,-12.52544,-4.72688
75.20001,-12.53357,-4.75009
75.25000,-12.54184,-4.72908
75.30000,-12.55037,-4.75005
75.35001,-12.55850,-4.72562
75.40000,-12.56677,-4.74865
75.45001,-12.57517,-4.72876
75.50000,-12.58330,-4.74557
75.55000,-12.59170,-4.72698
75.60001,-12.60010,-4.74721
75.65000,-12.60850,-4.72533
75.70001,-12.61690,-4.74401
75.75000,-12.62530,-4.72861
75.80000,-12.63357,-4.74016
75.85001,-12.64210,-4.72701
75.90000,-12.65037,-4.73601
75.95001,-12.65864,-4.73025
76.00000,-12.66704,-4.73081
76.05000,-12.67544,-4.73101
76.10001,-12.68344,-4.72910
76.15000,-12.69184,-4.72744
76.20001,-12.70024,-4.72859
76.25000,-12.70837,-4.72506
76.30000,-12.71664,-4.72453
76.35001,-12.72517,-4.72570
76.40000,-12.73357,-4.72516
76.45001,-12.74184,-4.72756
76.50000,-12.75037,-4.72384
76.55000,-12.75864,-4.72722
76.60001,-12.76704,-4.72369
76.65000,-12.77544,-4.72750
76.70001,-12.78357,-4.72293
76.75000,-12.79197,-4.72361
76.80000,-12.80024,-4.72353
76.85001,-12.80837,-4.72367
76.90000,-12.81690,-4.71993
76.95001,-12.82530,-4.72458
77.00000,-12.83330,-4.71972
77.05000,-12.84184,-4.72161
77.10001,-12.85024,-4.71953
77.15000,-12.85837,-4.72336
77.20001,-12.86663,-4.71890
77.25000,-12.87543,-4.72266
77.30000,-12.88357,-4.72251
77.35001,-12.89184,-4.72278
77.40000,-12.90037,-4.72161
77.45001,-12.90877,-4.72442
77.50000,-12.91677,-4.72116
77.55000,-12.92530,-4.72294
77.60001,-12.93357,-4.72325
77.65000,-12.94184,-4.72554
77.70001,-12.95010,-4.72410
77.75000,-12.95863,-4.72755
77.80000,-12.96704,-4.72670
77.85001,-12.97530,-4.72914
77.90000,-12.98357,-4.72838
77.95001,-12.99197,-4.72978
78.00000,-13.00037,-4.73123
78.05000,-13.00850,-4.73295
78.10001,-13.01677,-4.72928
78.15000,-13.02543,-4.73549
78.20001,-13.03370,-4.73402
78.25000,-13.04170,-4.73621
78.30000,-13.05037,-4.73501
78.35001,-13.05877,-4.74160
78.40000,-13.06690,-4.73565
78.45001,-13.07517,-4.74343
78.50000,-13.08357,-4.73630
78.55000,-13.09170,-4.74387
78.60001,-13.09997,-4.74146
78.65000,-13.10837,-4.74548
78.70001,-13.11677,-4.74377
78.75000,-13.12503,-4.74741
78.80000,-13.13343,-4.74626
78.85001,-13.14183,-4.74972
78.90000,-13.15037,-4.74845
78.95001,-13.15863,-4.75392
79.00000,-13.16690,-4.74955
79.05000,-13.17530,-4.75556
79.10001,-13.18357,-4.75262
79.15000,-13.19170,-4.75566
79.20001,-13.20023,-4.75436
79.25000,-13.20863,-4.75649
79.30000,-13.21677,-4.75681
79.35001,-13.22503,-4.75672
79.40000,-13.23357,-4.75819
79.45001,-13.24170,-4.75897
79.50000,-13.24997,-4.75943
79.55000,-13.25863,-4.76071
79.60001,-13.26677,-4.76202
79.65000,-13.27503,-4.76340
79.70001,-13.28357,-4.76449
79.75000,-13.29197,-4.76688
79.80000,-13.30023,-4.76934
79.85001,-13.30863,-4.76654
79.90000,-13.31690,-4.77311
79.95001,-13.32543,-4.76843
80.00000,-13.33370,-4.77803
80.05000,-13.34170,-4.76954
80.10001,-13.35037,-4.77815
80.15000,-13.35863,-4.77282
80.20001,-13.36663,-4.77813
80.25000,-13.37517,-4.77653
80.30000,-13.38357,-4.78062
80.35001,-13.39170,-4.78036
80.40000,-13.40010,-4.78090
80.45001,-13.40877,-4.78160
80.50001,-13.41703,-4.78819
80.55000,-13.42517,-4.78510
80.60001,-13.43370,-4.78785
80.65000,-13.44210,-4.78772
80.70001,-13.45023,-4.79132
80.75001,-13.45863,-4.79101
80.80000,-13.46703,-4.79416
80.85001,-13.47530,-4.79495
80.90000,-13.48357,-4.79560
80.95001,-13.49183,-4.79857
81.00001,-13.50037,-4.79964
81.05000,-13.50863,-4.80126
81.10001,-13.51677,-4.80451
81.15000,-13.52517,-4.80230
81.20001,-13.53357,-4.80938
81.25001,-13.54183,-4.80743
81.30000,-13.55010,-4.81330
81.35001,-13.55877,-4.81265
81.40000,-13.56703,-4.81757
81.45001,-13.57517,-4.81695
81.50001,-13.58357,-4.81995
81.55000,-13.59210,-4.82239
81.60001,-13.60010,-4.82476
81.65000,-13.60837,-4.82587
81.70001,-13.61690,-4.82998
81.75001,-13.62517,-4.83180
81.80000,-13.63343,-4.83472
81.85001,-13.64183,-4.83737
81.90000,-13.65010,-4.84049
81.95001,-13.65837,-4.84336
82.00001,-13.66677,-4.84833
82.05000,-13.67517,-4.84955
82.10001,-13.68370,-4.85583
82.15000,-13.69183,-4.85745
82.20001,-13.70010,-4.86169
82.25001,-13.70863,-4.86297
82.30000,-13.71703,-4.87013
82.35001,-13.72503,-4.86900
82.40000,-13.73370,-4.87674
82.45001,-13.74197,-4.87728
82.50001,-13.74997,-4.88408
82.55000,-13.75837,-4.88147
82.60001,-13.76690,-4.89009
82.65000,-13.77490,-4.89109
82.70001,-13.78330,-4.89671
82.75001,-13.79183,-4.90089
82.80000,-13.80010,-4.90312
82.85001,-13.80850,-4.90936
82.90000,-13.81690,-4.91074
82.95001,-13.82530,-4.91703
83.00001,-13.83357,-4.91703
83.05000,-13.84197,-4.92400
83.10001,-13.85023,-4.92336
83.15000,-13.85863,-4.93055
83.20001,-13.86690,-4.92983
83.25001,-13.87503,-4.93924
83.30000,-13.88370,-4.93417
83.35001,-13.89210,-4.94538
83.40000,-13.90010,-4.94100
83.45001,-13.90837,-4.94953
83.50001,-13.91677,-4.94785
83.55000,-13.92503,-4.95821
83.60001,-13.93343,-4.95612
83.65000,-13.94210,-4.96687
83.70001,-13.95037,-4.96708
83.75001,-13.95850,-4.97478
83.80000,-13.96703,-4.97486
83.85001,-13.97530,-4.98388
83.90000,-13.98343,-4.98244
83.95001,-13.99197,-4.99152
84.00001,-14.00037,-4.99316
84.05000,-14.00850,-4.99921
84.10001,-14.01690,-5.00138
84.15000,-14.02530,-5.00654
84.20001,-14.03357,-5.00925
84.25001,-14.04183,-5.01363
84.30000,-14.05010,-5.01774
84.35001,-14.05850,-5.02054
84.40000,-14.06690,-5.02657
84.45001,-14.07517,-5.03055
84.50001,-14.08343,-5.03427
84.55000,-14.09197,-5.03805
84.60001,-14.10037,-5.04419
84.65000,-14.10850,-5.04734
84.70001,-14.11690,-5.05036
84.75001,-14.12543,-5.05677
84.80000,-14.13357,-5.05978
84.85001,-14.14183,-5.06446
84.90000,-14.15037,-5.06871
84.95001,-14.15850,-5.07307
85.00001,-14.16677,-5.07738
85.05000,-14.17517,-5.08392
85.10001,-14.18330,-5.08617
85.15000,-14.19170,-5.09330
85.20001,-14.20010,-5.09671
85.25001,-14.20850,-5.10414
85.30000,-14.21690,-5.10702
85.35001,-14.22530,-5.11608
85.40000,-14.23343,-5.11711
85.45001,-14.24197,-5.12364
85.50001,-14.25023,-5.12661
85.55000,-14.25837,-5.13297
85.60001,-14.26676,-5.13593
85.65000,-14.27530,-5.14321
85.70001,-14.28330,-5.14678
85.75001,-14.29170,-5.15128
85.80000,-14.30037,-5.15589
85.85001,-14.30837,-5.16037
85.90000,-14.31650,-5.16328
85.95001,-14.32530,-5.16675
86.00001,-14.33356,-5.17499
86.05000,-14.34183,-5.17588
86.10001,-14.35023,-5.18313
86.15000,-14.35863,-5.18461
86.20001,-14.36690,-5.19036
86.25001,-14.37530,-5.19346
86.30000,-14.38370,-5.19917
86.35001,-14.39210,-5.20276
86.40000,-14.40036,-5.20574
86.45001,-14.40850,-5.21323
86.50001,-14.41690,-5.21210
86.55000,-14.42517,-5.22172
86.60001,-14.43330,-5.22068
86.65000,-14.44183,-5.23074
86.70001,-14.45023,-5.22977
86.75001,-14.45836,-5.24073
86.80000,-14.46676,-5.23728
86.85001,-14.47543,-5.25601
86.90000,-14.48356,-5.23952
86.95001,-14.49183,-5.26595
87.00001,-14.50023,-5.25091
87.05000,-14.50863,-5.27333
87.10001,-14.51690,-5.26249
87.15000,-14.52530,-5.27785
87.20001,-14.53370,-5.27792
87.25001,-14.54183,-5.28059
87.30000,-14.55023,-5.28323
87.35001,-14.55850,-5.28902
87.40000,-14.56703,-5.28640
87.45001,-14.57516,-5.30071
87.50001,-14.58343,-5.29185
87.55000,-14.59183,-5.30723
87.60001,-14.60023,-5.30180
87.65000,-14.60850,-5.30710
87.70001,-14.61676,-5.31944
87.75001,-14.62530,-5.30786
87.80000,-14.63356,-5.32995
87.85001,-14.64183,-5.31384
87.90000,-14.65023,-5.33387
87.95001,-14.65876,-5.32405
88.00001,-14.66676,-5.33777
88.05000,-14.67516,-5.33404
88.10001,-14.68370,-5.34255
88.15000,-14.69170,-5.34813
88.20001,-14.69996,-5.34027
88.25001,-14.70850,-5.35572
88.30000,-14.71676,-5.34687
88.35001,-14.72516,-5.36258
88.40000,-14.73343,-5.35671
88.45001,-14.74183,-5.36916
88.50001,-14.75023,-5.36499
88.55000,-14.75850,-5.37788
88.60001,-14.76663,-5.36553
88.65000,-14.77530,-5.39182
88.70001,-14.78370,-5.36933
88.75001,-14.79170,-5.40430
88.80000,-14.80036,-5.36769
88.85001,-14.80863,-5.41413
88.90000,-14.81676,-5.38060
88.95001,-14.82516,-5.41448
89.00001,-14.83370,-5.39241
89.05000,-14.84183,-5.41702
89.10001,-14.84996,-5.39849
89.15000,-14.85850,-5.42397
89.20001,-14.86676,-5.40531
89.25001,-14.87503,-5.43496
89.30000,-14.88356,-5.41177
89.35001,-14.89196,-5.44498
89.40000,-14.90023,-5.42203
89.45001,-14.90863,-5.44946
89.50001,-14.91690,-5.43143
89.55000,-14.92516,-5.45356
89.60001,-14.93343,-5.44682
89.65000,-14.94170,-5.45244
89.70001,-14.95036,-5.46397
89.75001,-14.95876,-5.45968
89.80000,-14.96676,-5.47310
89.85001,-14.97516,-5.46920
89.90000,-14.98370,-5.48113
89.95001,-14.99183,-5.47683
90.00001,-15.00010,-5.49119
90.04201,-15.00730,-5.48786
