Time,Extension,Load
(sec),(mm),(N)
0.00000,0.00000,-0.07267
0.05000,-0.00120,-0.07810
0.10000,-0.00600,-0.07567
0.15000,-0.01533,-0.09071
0.20000,-0.02587,-0.09322
0.25000,-0.03587,-0.10708
0.30000,-0.04573,-0.11351
0.35000,-0.05533,-0.11910
0.40000,-0.06440,-0.13148
0.45000,-0.07320,-0.13200
0.50000,-0.08213,-0.14384
0.55000,-0.09080,-0.14577
0.60000,-0.09907,-0.15405
0.65000,-0.10773,-0.15901
0.70000,-0.11627,-0.16698
0.75000,-0.12453,-0.16864
0.80000,-0.13307,-0.17947
0.85000,-0.14173,-0.17975
0.90000,-0.14987,-0.19224
0.95000,-0.15827,-0.19190
1.00000,-0.16693,-0.20391
1.05000,-0.17493,-0.20280
1.10000,-0.18320,-0.21595
1.15000,-0.19173,-0.21673
1.20000,-0.20013,-0.22453
1.25000,-0.20827,-0.23139
1.30000,-0.21667,-0.23450
1.35000,-0.22493,-0.24471
1.40000,-0.23320,-0.24647
1.45000,-0.24160,-0.25539
1.50000,-0.24973,-0.26051
1.55000,-0.25827,-0.26489
1.60000,-0.26667,-0.27270
1.65000,-0.27493,-0.27820
1.70000,-0.28347,-0.28475
1.75000,-0.29187,-0.29075
1.80000,-0.30000,-0.29554
1.85000,-0.30827,-0.30418
1.90000,-0.31693,-0.30718
1.95000,-0.32507,-0.31357
2.00000,-0.33320,-0.32173
2.05000,-0.34173,-0.32593
2.10000,-0.35013,-0.33410
2.15000,-0.35827,-0.33738
2.20000,-0.36653,-0.34787
2.25000,-0.37493,-0.34878
2.30000,-0.38320,-0.35795
2.35000,-0.39147,-0.36281
2.40000,-0.39987,-0.37243
2.45000,-0.40827,-0.37497
2.50000,-0.41680,-0.38517
2.55000,-0.42507,-0.38772
2.60000,-0.43347,-0.39714
2.65000,-0.44187,-0.39944
2.70000,-0.45000,-0.41200
2.75000,-0.45840,-0.41227
2.80000,-0.46693,-0.42335
2.85000,-0.47507,-0.42552
2.90000,-0.48320,-0.43569
2.95000,-0.49173,-0.43725
3.00000,-0.49987,-0.44762
3.05000,-0.50813,-0.45248
3.10000,-0.51653,-0.46028
3.15000,-0.52507,-0.46452
3.20000,-0.53333,-0.47360
3.25000,-0.54173,-0.47824
3.30000,-0.55027,-0.48416
3.35000,-0.55853,-0.49264
3.40000,-0.56680,-0.49918
3.45000,-0.57520,-0.50587
3.50000,-0.58360,-0.51034
3.55000,-0.59187,-0.52014
3.60000,-0.60027,-0.52324
3.65000,-0.60840,-0.53075
3.70000,-0.61680,-0.53807
3.75000,-0.62507,-0.54628
3.80000,-0.63320,-0.55117
3.85000,-0.64187,-0.55818
3.90000,-0.65000,-0.56521
3.95000,-0.65813,-0.57252
4.00000,-0.66667,-0.57527
4.05000,-0.67520,-0.58667
4.10000,-0.68333,-0.59217
4.15000,-0.69160,-0.59952
4.20000,-0.70026,-0.60478
4.25000,-0.70840,-0.61274
4.30000,-0.71680,-0.61883
4.35000,-0.72520,-0.62404
4.40000,-0.73346,-0.63429
4.45000,-0.74173,-0.63900
4.50000,-0.75000,-0.64666
4.55000,-0.75840,-0.65204
4.60000,-0.76680,-0.66110
4.65000,-0.77506,-0.66417
4.70000,-0.78320,-0.67425
4.75000,-0.79173,-0.67923
4.80000,-0.80013,-0.68876
4.85000,-0.80826,-0.69151
4.90000,-0.81666,-0.70308
4.95000,-0.82520,-0.70464
5.00000,-0.83333,-0.71492
5.05000,-0.84173,-0.71988
5.10000,-0.85026,-0.72973
5.15000,-0.85840,-0.73386
5.20000,-0.86666,-0.74124
5.25000,-0.87506,-0.74924
5.30000,-0.88333,-0.75248
5.35000,-0.89146,-0.76431
5.40000,-0.89973,-0.76790
5.45000,-0.90813,-0.77631
5.50000,-0.91640,-0.78299
5.55000,-0.92480,-0.78927
5.60000,-0.93333,-0.79596
5.65000,-0.94186,-0.80455
5.70000,-0.95026,-0.81217
5.75000,-0.95840,-0.81965
5.80000,-0.96680,-0.82329
5.85000,-0.97533,-0.83511
5.90000,-0.98346,-0.83541
5.95000,-0.99160,-0.84870
6.00000,-1.00026,-0.85087
6.05000,-1.00840,-0.86336
6.10000,-1.01653,-0.86439
6.15000,-1.02506,-0.87495
6.20000,-1.03333,-0.88119
6.25000,-1.04146,-0.88634
6.30000,-1.04986,-0.89462
6.35000,-1.05840,-0.90341
6.40000,-1.06666,-0.90837
6.45000,-1.07506,-0.91787
6.50000,-1.08360,-0.92278
6.55000,-1.09186,-0.93015
6.60000,-1.10013,-0.93848
6.65000,-1.10853,-0.94497
6.70000,-1.11693,-0.95336
6.75000,-1.12533,-0.95798
6.80000,-1.13360,-0.96799
6.85000,-1.14173,-0.97135
6.90000,-1.15026,-0.98227
6.95000,-1.15853,-0.98750
7.00000,-1.16653,-0.99669
7.05000,-1.17506,-1.00025
7.10000,-1.18333,-1.01095
7.15000,-1.19146,-1.01271
7.20000,-1.20000,-1.02550
7.25000,-1.20866,-1.02864
7.30000,-1.21680,-1.04053
7.35000,-1.22506,-1.04345
7.40000,-1.23360,-1.05306
7.45000,-1.24186,-1.05679
7.50000,-1.25026,-1.06825
7.55000,-1.25866,-1.07244
7.60000,-1.26693,-1.08229
7.65000,-1.27506,-1.08658
7.70000,-1.28333,-1.09675
7.75000,-1.29173,-1.09914
7.80000,-1.30000,-1.11110
7.85000,-1.30840,-1.11484
7.90000,-1.31640,-1.12489
7.95000,-1.32493,-1.12864
8.00000,-1.33333,-1.13938
8.05000,-1.34160,-1.14166
8.10000,-1.35000,-1.15400
8.15000,-1.35853,-1.15830
8.20000,-1.36666,-1.16761
8.25000,-1.37506,-1.17250
8.30000,-1.38360,-1.18027
8.35000,-1.39173,-1.18598
8.40000,-1.39986,-1.19622
8.45000,-1.40840,-1.20037
8.50000,-1.41666,-1.20980
8.55000,-1.42493,-1.21424
8.60000,-1.43320,-1.22291
8.65000,-1.44160,-1.22845
8.70000,-1.44986,-1.23705
8.75000,-1.45826,-1.24337
8.80000,-1.46653,-1.25009
8.85000,-1.47506,-1.25808
8.90000,-1.48333,-1.26393
8.95000,-1.49160,-1.27254
9.00000,-1.50013,-1.27851
9.05000,-1.50853,-1.28607
9.10000,-1.51666,-1.29276
9.15000,-1.52493,-1.29966
9.20000,-1.53360,-1.30671
9.25000,-1.54186,-1.31408
9.30000,-1.54986,-1.32010
9.35000,-1.55840,-1.32813
9.40000,-1.56666,-1.33378
9.45000,-1.57466,-1.34144
9.50000,-1.58320,-1.34683
9.55000,-1.59186,-1.35619
9.60000,-1.60013,-1.36169
9.65000,-1.60840,-1.36980
9.70000,-1.61706,-1.37564
9.75000,-1.62533,-1.38343
9.80000,-1.63360,-1.38933
9.85000,-1.64200,-1.39780
9.90000,-1.65013,-1.40200
9.95000,-1.65853,-1.41062
10.00000,-1.66680,-1.41706
10.05000,-1.67493,-1.42445
10.10000,-1.68360,-1.42937
10.15000,-1.69173,-1.43826
10.20000,-1.69986,-1.44374
10.25000,-1.70840,-1.44980
10.30000,-1.71666,-1.45854
10.35000,-1.72480,-1.46254
10.40000,-1.73333,-1.47151
10.45000,-1.74186,-1.47806
10.50000,-1.75000,-1.48389
10.55000,-1.75840,-1.49140
10.60000,-1.76693,-1.49825
10.65000,-1.77520,-1.49898
10.70000,-1.78346,-1.51750
10.75000,-1.79186,-1.51378
10.80000,-1.80000,-1.52679
10.85000,-1.80826,-1.52624
10.90000,-1.81653,-1.54158
10.95000,-1.82480,-1.53412
11.00000,-1.83333,-1.55675
11.05000,-1.84160,-1.55090
11.10000,-1.84960,-1.56627
11.15000,-1.85826,-1.56485
11.20000,-1.86666,-1.57884
11.25000,-1.87480,-1.57755
11.30000,-1.88333,-1.59328
11.35000,-1.89186,-1.58967
11.40000,-1.90000,-1.60374
11.45000,-1.90826,-1.60421
11.50000,-1.91693,-1.61501
11.55000,-1.92506,-1.61910
11.60000,-1.93333,-1.62782
11.65000,-1.94173,-1.63114
11.70000,-1.95000,-1.63902
11.75000,-1.95826,-1.64399
11.80000,-1.96666,-1.65123
11.85000,-1.97493,-1.65707
11.90000,-1.98320,-1.66066
11.95000,-1.99146,-1.67120
12.00000,-1.99986,-1.67405
12.05000,-2.00840,-1.68219
12.10000,-2.01680,-1.68662
12.15000,-2.02506,-1.69540
12.20000,-2.03346,-1.69759
12.25000,-2.04200,-1.70951
12.30000,-2.05013,-1.71024
12.35000,-2.05839,-1.71967
12.40000,-2.06693,-1.72313
12.45000,-2.07520,-1.73137
12.50000,-2.08319,-1.73625
12.55000,-2.09173,-1.74273
12.60000,-2.09999,-1.74672
12.65000,-2.10813,-1.75601
12.70000,-2.11666,-1.75857
12.75000,-2.12519,-1.76792
12.80000,-2.13333,-1.77064
12.85000,-2.14159,-1.78024
12.90000,-2.15026,-1.78263
12.95000,-2.15853,-1.79017
13.00000,-2.16693,-1.79697
13.05000,-2.17533,-1.80114
13.10000,-2.18359,-1.80845
13.15000,-2.19186,-1.81275
13.20000,-2.20026,-1.82038
13.25000,-2.20839,-1.82335
13.30000,-2.21679,-1.83225
13.35000,-2.22506,-1.83396
13.40000,-2.23306,-1.84561
13.45000,-2.24173,-1.84370
13.50000,-2.24999,-1.85639
13.55000,-2.25813,-1.85658
13.60000,-2.26679,-1.86786
13.65000,-2.27533,-1.86873
13.70000,-2.28346,-1.87860
13.75000,-2.29186,-1.87983
13.80000,-2.30039,-1.88860
13.85000,-2.30853,-1.89266
13.90000,-2.31679,-1.89842
13.95000,-2.32519,-1.90227
14.00000,-2.33359,-1.91013
14.05000,-2.34173,-1.91209
14.10000,-2.35013,-1.92133
14.15000,-2.35839,-1.92288
14.20000,-2.36679,-1.93071
14.25000,-2.37506,-1.93558
14.30000,-2.38319,-1.93866
14.35000,-2.39173,-1.94673
14.40000,-2.40013,-1.95077
14.45000,-2.40826,-1.95579
14.50000,-2.41679,-1.96087
14.55000,-2.42533,-1.96654
14.60000,-2.43346,-1.97144
14.65000,-2.44173,-1.97631
14.70000,-2.45039,-1.98198
14.75000,-2.45853,-1.98700
14.80000,-2.46666,-1.99089
14.85000,-2.47506,-1.99648
14.90000,-2.48333,-2.00126
14.95000,-2.49159,-2.00610
15.00000,-2.49986,-2.00982
15.05000,-2.50826,-2.01652
15.10000,-2.51653,-2.02007
15.15000,-2.52479,-2.02510
15.20000,-2.53319,-2.03090
15.25000,-2.54186,-2.03559
15.30000,-2.55013,-2.03992
15.35000,-2.55839,-2.04512
15.40000,-2.56679,-2.04858
15.45000,-2.57519,-2.05324
15.50000,-2.58346,-2.05844
15.55000,-2.59173,-2.05949
15.60000,-2.60026,-2.06467
15.65000,-2.60839,-2.06895
15.70000,-2.61653,-2.07480
15.75000,-2.62506,-2.07803
15.80000,-2.63346,-2.08315
15.85000,-2.64159,-2.08759
15.90000,-2.64999,-2.09218
15.95000,-2.65853,-2.09547
16.00000,-2.66679,-2.09975
16.05000,-2.67506,-2.10139
16.10000,-2.68359,-2.10034
16.15000,-2.69186,-2.10061
16.20000,-2.70013,-2.10091
16.25000,-2.70853,-2.10481
16.30000,-2.71693,-2.10481
16.35000,-2.72519,-2.10626
16.40000,-2.73346,-2.10659
16.45000,-2.74173,-2.10841
16.50000,-2.75026,-2.10675
16.55000,-2.75853,-2.10515
16.60000,-2.76653,-2.10530
16.65000,-2.77519,-2.10471
16.70000,-2.78346,-2.10358
16.75000,-2.79159,-2.10406
16.80000,-2.80013,-2.10556
16.85000,-2.80853,-2.10917
16.90000,-2.81666,-2.10813
16.95000,-2.82506,-2.10624
17.00000,-2.83359,-2.10490
17.05000,-2.84173,-2.10235
17.10000,-2.85013,-2.10185
17.15000,-2.85853,-2.10108
17.20000,-2.86693,-2.10057
17.25000,-2.87519,-2.10236
17.30000,-2.88346,-2.10482
17.35000,-2.89159,-2.10323
17.40000,-2.89999,-2.10249
17.45000,-2.90826,-2.10124
17.50000,-2.91653,-2.10097
17.55000,-2.92519,-2.10434
17.60000,-2.93359,-2.10395
17.65000,-2.94159,-2.10419
17.70000,-2.95026,-2.10754
17.75000,-2.95866,-2.11285
17.80000,-2.96666,-2.11781
17.85000,-2.97493,-2.12283
17.90000,-2.98359,-2.13133
17.95000,-2.99186,-2.13486
18.00000,-2.99999,-2.13514
18.05000,-3.00853,-2.13689
18.10000,-3.01679,-2.14516
18.15000,-3.02493,-2.15007
18.20000,-3.03319,-2.15573
18.25000,-3.04159,-2.16119
18.30000,-3.04986,-2.16494
18.35000,-3.05813,-2.17130
18.40000,-3.06653,-2.17683
18.45000,-3.07519,-2.18112
18.50000,-3.08346,-2.18572
18.55000,-3.09173,-2.19056
18.60000,-3.10013,-2.19558
18.65000,-3.10866,-2.20173
18.70000,-3.11679,-2.20728
18.75000,-3.12506,-2.21187
18.80000,-3.13373,-2.21830
18.85000,-3.14173,-2.22361
18.90000,-3.14986,-2.22597
18.95000,-3.15839,-2.23250
19.00000,-3.16693,-2.23629
19.05000,-3.17479,-2.24382
19.10000,-3.18319,-2.24475
19.15000,-3.19186,-2.25221
19.20000,-3.19999,-2.25541
19.25000,-3.20839,-2.26045
19.30000,-3.21679,-2.26481
19.35000,-3.22519,-2.26940
19.40000,-3.23346,-2.27464
19.45000,-3.24186,-2.27680
19.50000,-3.25026,-2.28262
19.55000,-3.25866,-2.28665
19.60000,-3.26693,-2.29032
19.65000,-3.27506,-2.29397
19.70000,-3.28346,-2.29717
19.75000,-3.29173,-2.30162
19.80000,-3.29986,-2.30581
19.85000,-3.30839,-2.30801
19.90000,-3.31679,-2.31320
19.95000,-3.32479,-2.31690
20.00000,-3.33346,-2.31955
20.05000,-3.34199,-2.32362
20.10000,-3.35013,-2.32924
20.15000,-3.35839,-2.32864
20.20000,-3.36706,-2.33668
20.25000,-3.37519,-2.33742
20.30000,-3.38346,-2.34175
20.35000,-3.39186,-2.34495
20.40000,-3.40013,-2.34769
20.45000,-3.40852,-2.35214
20.50000,-3.41679,-2.35478
20.55000,-3.42506,-2.35746
20.60000,-3.43346,-2.36163
20.65000,-3.44172,-2.36387
20.70000,-3.44986,-2.36879
20.75000,-3.45852,-2.36972
20.80000,-3.46692,-2.37352
20.85000,-3.47492,-2.37567
20.90000,-3.48346,-2.37925
20.95000,-3.49186,-2.38110
21.00000,-3.49999,-2.38514
21.05000,-3.50826,-2.38651
21.10000,-3.51692,-2.39209
21.15000,-3.52506,-2.39126
21.20000,-3.53332,-2.39509
21.25000,-3.54172,-2.39942
21.30000,-3.54999,-2.39899
21.35000,-3.55812,-2.40389
21.40000,-3.56652,-2.40466
21.45000,-3.57479,-2.40867
21.50000,-3.58319,-2.41042
21.55000,-3.59172,-2.41363
21.60000,-3.59999,-2.41729
21.65000,-3.60852,-2.41715
21.70000,-3.61679,-2.42318
21.75000,-3.62506,-2.42235
21.80000,-3.63332,-2.42817
21.85000,-3.64186,-2.42846
21.90000,-3.65012,-2.43122
21.95000,-3.65839,-2.43255
22.00000,-3.66692,-2.43769
22.05000,-3.67519,-2.43728
22.10000,-3.68319,-2.44103
22.15000,-3.69172,-2.44147
22.20000,-3.70012,-2.44498
22.25000,-3.70812,-2.44668
22.30000,-3.71652,-2.44729
22.35000,-3.72519,-2.45119
22.40000,-3.73332,-2.45366
22.45000,-3.74172,-2.45463
22.50000,-3.75012,-2.45605
22.55000,-3.75852,-2.45813
22.60000,-3.76679,-2.46139
22.65000,-3.77519,-2.46160
22.70000,-3.78359,-2.46353
22.75000,-3.79199,-2.46563
22.80000,-3.80026,-2.46617
22.85000,-3.80839,-2.46910
22.90000,-3.81692,-2.46749
22.95000,-3.82506,-2.47257
23.00000,-3.83319,-2.47126
23.05000,-3.84186,-2.47273
23.10000,-3.85012,-2.47414
23.15000,-3.85826,-2.47453
23.20000,-3.86679,-2.47684
23.25000,-3.87532,-2.47632
23.30000,-3.88346,-2.48060
23.35000,-3.89172,-2.47883
23.40000,-3.90026,-2.48282
23.45000,-3.90852,-2.48317
23.50000,-3.91679,-2.48313
23.55000,-3.92532,-2.48414
23.60000,-3.93359,-2.48787
23.65000,-3.94186,-2.48478
23.70000,-3.95012,-2.48801
23.75000,-3.95839,-2.48681
23.80000,-3.96679,-2.49078
23.85000,-3.97492,-2.48667
23.90000,-3.98306,-2.49257
23.95000,-3.99172,-2.49066
24.00000,-4.00012,-2.49590
24.05000,-4.00812,-2.49505
24.10000,-4.01666,-2.49513
24.15000,-4.02532,-2.50430
24.20000,-4.03332,-2.49384
24.25000,-4.04172,-2.50982
24.30000,-4.05039,-2.49681
24.35000,-4.05839,-2.51309
24.40000,-4.06666,-2.50032
24.45000,-4.07506,-2.51402
24.50000,-4.08332,-2.50367
24.55000,-4.09159,-2.51703
24.60000,-4.09986,-2.50959
24.65000,-4.10826,-2.51171
24.70000,-4.11652,-2.51935
24.75000,-4.12492,-2.51484
24.80000,-4.13319,-2.51830
24.85000,-4.14172,-2.52120
24.90000,-4.15012,-2.51887
24.95000,-4.15826,-2.52640
25.00000,-4.16666,-2.52006
25.05000,-4.17519,-2.52729
25.10000,-4.18346,-2.52622
25.15000,-4.19172,-2.52420
25.20000,-4.20026,-2.53015
25.25000,-4.20839,-2.52163
25.30000,-4.21652,-2.53825
25.35000,-4.22492,-2.51616
25.40000,-4.23332,-2.54239
25.45000,-4.24146,-2.52251
25.50000,-4.24986,-2.53937
25.55000,-4.25866,-2.52703
25.60000,-4.26679,-2.53977
25.65000,-4.27519,-2.52910
25.70000,-4.28372,-2.54859
25.75000,-4.29186,-2.52106
25.80000,-4.30012,-2.55408
25.85000,-4.30852,-2.52407
25.90000,-4.31692,-2.55391
25.95000,-4.32532,-2.52925
26.00000,-4.33346,-2.55251
26.05000,-4.34172,-2.53454
26.10000,-4.35026,-2.54989
26.15000,-4.35852,-2.54080
26.20000,-4.36652,-2.55103
26.25000,-4.37519,-2.54141
26.30000,-4.38346,-2.55383
26.35000,-4.39146,-2.53822
26.40000,-4.39999,-2.56029
26.45000,-4.40866,-2.54216
26.50000,-4.41666,-2.55681
26.55000,-4.42506,-2.54839
26.60000,-4.43372,-2.55600
26.65000,-4.44186,-2.55148
26.70000,-4.45026,-2.55517
26.75000,-4.45866,-2.55426
26.80000,-4.46692,-2.55729
26.85000,-4.47506,-2.55442
26.90000,-4.48332,-2.55764
26.95000,-4.49159,-2.55385
27.00000,-4.49999,-2.56170
27.05000,-4.50826,-2.55953
27.10000,-4.51639,-2.55719
27.15000,-4.52506,-2.56170
27.20000,-4.53346,-2.55988
27.25000,-4.54146,-2.56722
27.30000,-4.55012,-2.55599
27.35000,-4.55852,-2.56947
27.40000,-4.56666,-2.56190
27.45000,-4.57506,-2.56520
27.50000,-4.58359,-2.56581
27.55000,-4.59172,-2.56255
27.60000,-4.59999,-2.56604
27.65000,-4.60839,-2.57073
27.70000,-4.61679,-2.55937
27.75000,-4.62492,-2.57093
27.80000,-4.63332,-2.56562
27.85000,-4.64159,-2.57134
27.90000,-4.64986,-2.56327
27.95000,-4.65826,-2.57320
28.00000,-4.66652,-2.56678
28.05000,-4.67506,-2.56965
28.10000,-4.68346,-2.57174
28.15000,-4.69172,-2.57266
28.20000,-4.70012,-2.56912
28.25000,-4.70852,-2.57851
28.30000,-4.71679,-2.56575
28.35000,-4.72506,-2.57753
28.40000,-4.73359,-2.57059
28.45000,-4.74172,-2.57760
28.50000,-4.74986,-2.56856
28.55000,-4.75839,-2.57871
28.60000,-4.76679,-2.56956
28.65000,-4.77492,-2.57927
28.70000,-4.78332,-2.57211
28.75000,-4.79185,-2.57831
28.80000,-4.79999,-2.57387
28.85000,-4.80826,-2.58111
28.90000,-4.81679,-2.57318
28.95000,-4.82519,-2.58527
29.00000,-4.83345,-2.57089
29.05000,-4.84185,-2.58443
29.10000,-4.85025,-2.57750
29.15000,-4.85865,-2.57986
29.20000,-4.86692,-2.58039
29.25000,-4.87506,-2.58148
29.30000,-4.88359,-2.57747
29.35000,-4.89172,-2.58435
29.40000,-4.89985,-2.57645
29.45000,-4.90825,-2.58366
29.50000,-4.91679,-2.58122
29.55000,-4.92492,-2.58260
29.60000,-4.93345,-2.58181
29.65000,-4.94199,-2.58578
29.70000,-4.95025,-2.58051
29.75000,-4.95852,-2.58683
29.80000,-4.96705,-2.58110
29.85000,-4.97519,-2.58988
29.90000,-4.98345,-2.58324
29.95000,-4.99185,-2.58659
30.00000,-5.00012,-2.58218
30.05000,-5.00852,-2.59135
30.10000,-5.01679,-2.58377
30.15000,-5.02505,-2.58950
30.20000,-5.03332,-2.58660
30.25000,-5.04159,-2.58855
30.30000,-5.04985,-2.58886
30.35000,-5.05839,-2.58869
30.40000,-5.06679,-2.58919
30.45000,-5.07492,-2.59282
30.50000,-5.08345,-2.58774
30.55000,-5.09199,-2.59355
30.60000,-5.10012,-2.58917
30.65000,-5.10839,-2.59307
30.70000,-5.11692,-2.59183
30.75000,-5.12505,-2.59339
30.80000,-5.13319,-2.58835
30.85000,-5.14159,-2.59617
30.90000,-5.14999,-2.58950
30.95000,-5.15825,-2.59258
31.00000,-5.16652,-2.59185
31.05000,-5.17492,-2.59321
31.10000,-5.18332,-2.59079
31.15000,-5.19159,-2.59492
31.20000,-5.19999,-2.58923
31.25000,-5.20852,-2.59291
31.30000,-5.21692,-2.59274
31.35000,-5.22505,-2.59169
31.40000,-5.23345,-2.59137
31.45000,-5.24185,-2.59185
31.50000,-5.25012,-2.59504
31.55000,-5.25839,-2.59087
31.60000,-5.26692,-2.59476
31.65000,-5.27505,-2.59244
31.70000,-5.28319,-2.59673
31.75000,-5.29172,-2.58985
31.80000,-5.30012,-2.59841
31.85000,-5.30812,-2.59390
31.90000,-5.31652,-2.59762
31.95000,-5.32505,-2.59413
32.00000,-5.33319,-2.59970
32.05000,-5.34159,-2.59622
32.10000,-5.35012,-2.59925
32.15000,-5.35865,-2.59728
32.20000,-5.36692,-2.60056
32.25000,-5.37532,-2.59898
32.30000,-5.38359,-2.59995
32.35000,-5.39185,-2.59806
32.40000,-5.40012,-2.60069
32.45000,-5.40839,-2.59706
32.50000,-5.41679,-2.59945
32.55000,-5.42505,-2.59355
32.60000,-5.43319,-2.60179
32.65000,-5.44185,-2.59353
32.70000,-5.45012,-2.60025
32.75000,-5.45825,-2.59618
32.80000,-5.46679,-2.60078
32.85000,-5.47532,-2.59699
32.90000,-5.48345,-2.60130
32.95000,-5.49172,-2.59704
33.00000,-5.50039,-2.60305
33.05000,-5.50852,-2.59834
33.10000,-5.51679,-2.60369
33.15000,-5.52532,-2.59988
33.20000,-5.53345,-2.60412
33.25000,-5.54159,-2.60002
33.30000,-5.54985,-2.60548
33.35000,-5.55825,-2.60123
33.40000,-5.56665,-2.60613
33.45000,-5.57505,-2.60368
33.50000,-5.58319,-2.60638
33.55000,-5.59185,-2.60592
33.60000,-5.60025,-2.60736
33.65000,-5.60825,-2.60686
33.70000,-5.61679,-2.60841
33.75000,-5.62532,-2.60914
33.80000,-5.63345,-2.60814
33.85000,-5.64172,-2.61118
33.90000,-5.65039,-2.60998
33.95000,-5.65839,-2.61295
34.00000,-5.66665,-2.61238
34.05000,-5.67505,-2.61053
34.10000,-5.68332,-2.61484
34.15000,-5.69159,-2.61298
34.20000,-5.69985,-2.61489
34.25000,-5.70825,-2.61446
34.30000,-5.71652,-2.61670
34.35000,-5.72492,-2.61800
34.40000,-5.73319,-2.61793
34.45000,-5.74172,-2.61818
34.50000,-5.75012,-2.62017
34.55000,-5.75839,-2.62180
34.60000,-5.76679,-2.62132
34.65000,-5.77519,-2.62198
34.70000,-5.78345,-2.62464
34.75000,-5.79172,-2.62143
34.80000,-5.80025,-2.62615
34.85000,-5.80839,-2.62428
34.90000,-5.81652,-2.62340
34.95000,-5.82505,-2.62640
35.00000,-5.83345,-2.62449
35.05000,-5.84145,-2.62567
35.10000,-5.84985,-2.62932
35.15000,-5.85839,-2.62563
35.20000,-5.86665,-2.62978
35.25000,-5.87492,-2.62892
35.30000,-5.88345,-2.62952
35.35000,-5.89185,-2.63037
35.40000,-5.90025,-2.63317
35.45000,-5.90852,-2.63141
35.50000,-5.91692,-2.63516
35.55000,-5.92519,-2.63480
35.60000,-5.93359,-2.63457
35.65000,-5.94172,-2.63872
35.70000,-5.95025,-2.63673
35.75000,-5.95852,-2.63880
35.80000,-5.96665,-2.63786
35.85000,-5.97519,-2.64028
35.90000,-5.98345,-2.64302
35.95000,-5.99159,-2.64382
36.00000,-6.00012,-2.64014
36.05000,-6.00852,-2.64735
36.10000,-6.01665,-2.64664
36.15000,-6.02505,-2.64877
36.20000,-6.03372,-2.64801
36.25000,-6.04185,-2.65189
36.30000,-6.05025,-2.65010
36.35000,-6.05865,-2.65532
36.40000,-6.06692,-2.65239
36.45000,-6.07505,-2.65840
36.50000,-6.08345,-2.65409
36.55000,-6.09172,-2.65780
36.60000,-6.10012,-2.65921
36.65000,-6.10839,-2.66220
36.70000,-6.11652,-2.66119
36.75000,-6.12519,-2.66238
36.80000,-6.13345,-2.66454
36.85000,-6.14158,-2.66768
36.90000,-6.15012,-2.66617
36.95000,-6.15852,-2.66939
37.00000,-6.16665,-2.66702
37.05000,-6.17505,-2.67447
37.10000,-6.18372,-2.67022
37.15000,-6.19172,-2.67619
37.20000,-6.19998,-2.67281
37.25000,-6.20825,-2.67738
37.30000,-6.21652,-2.67789
37.35000,-6.22479,-2.67943
37.40000,-6.23318,-2.67893
37.45000,-6.24172,-2.68276
37.50000,-6.24985,-2.68423
37.55000,-6.25825,-2.68497
37.60000,-6.26665,-2.68679
37.65000,-6.27518,-2.68589
37.70000,-6.28345,-2.69206
37.75000,-6.29172,-2.68928
37.80000,-6.30012,-2.69352
37.85000,-6.30852,-2.68992
37.90000,-6.31665,-2.69843
37.95000,-6.32492,-2.69322
38.00000,-6.33358,-2.69871
38.05000,-6.34185,-2.69568
38.10000,-6.34985,-2.70221
38.15000,-6.35852,-2.70108
38.20000,-6.36678,-2.69968
38.25000,-6.37492,-2.70282
38.30000,-6.38332,-2.70354
38.35000,-6.39185,-2.70334
38.40000,-6.40012,-2.70456
38.45000,-6.40838,-2.70163
38.50000,-6.41692,-2.70923
38.55000,-6.42518,-2.70243
38.60000,-6.43358,-2.71084
38.65000,-6.44198,-2.70255
38.70000,-6.45025,-2.71324
38.75000,-6.45865,-2.70565
38.80000,-6.46692,-2.71358
38.85000,-6.47505,-2.70383
38.90000,-6.48358,-2.71605
38.95000,-6.49172,-2.70765
39.00000,-6.49998,-2.71620
39.05000,-6.50852,-2.71108
39.10000,-6.51678,-2.71333
39.15000,-6.52478,-2.71468
39.20000,-6.53332,-2.71492
39.25000,-6.54185,-2.71716
39.30000,-6.54998,-2.71402
39.35000,-6.55838,-2.72000
39.40000,-6.56705,-2.71686
39.45000,-6.57518,-2.72164
39.50000,-6.58358,-2.72083
39.55000,-6.59198,-2.71801
39.60000,-6.60025,-2.72629
39.65000,-6.60838,-2.71972
39.70000,-6.61678,-2.72541
39.75000,-6.62505,-2.72243
39.80000,-6.63345,-2.72527
39.85000,-6.64172,-2.72755
39.90000,-6.64985,-2.72342
39.95000,-6.65838,-2.73101
40.00000,-6.66665,-2.72290
40.05000,-6.67492,-2.73558
40.10000,-6.68345,-2.72403
40.15000,-6.69198,-2.73559
40.20000,-6.69998,-2.73027
40.25000,-6.70825,-2.73047
40.30000,-6.71692,-2.73237
40.35000,-6.72505,-2.73288
40.40000,-6.73332,-2.73477
40.45000,-6.74172,-2.73084
40.50000,-6.74998,-2.73788
40.55000,-6.75825,-2.73178
40.60000,-6.76652,-2.73630
40.65000,-6.77492,-2.73688
40.70000,-6.78318,-2.73159
40.75000,-6.79158,-2.74123
40.80000,-6.79998,-2.73179
40.85000,-6.80852,-2.74038
40.90000,-6.81678,-2.73427
40.95000,-6.82492,-2.74060
41.00000,-6.83345,-2.73556
41.05000,-6.84185,-2.74022
41.10000,-6.85012,-2.73871
41.15000,-6.85838,-2.73821
41.20000,-6.86692,-2.74035
41.25000,-6.87505,-2.73858
41.30000,-6.88318,-2.73933
41.35000,-6.89172,-2.73845
41.40000,-6.89998,-2.73858
41.45000,-6.90812,-2.74231
41.50000,-6.91665,-2.73713
41.55000,-6.92518,-2.74027
41.60000,-6.93345,-2.74333
41.65000,-6.94172,-2.73678
41.70000,-6.95038,-2.74726
41.75000,-6.95852,-2.73879
41.80000,-6.96678,-2.74688
41.85000,-6.97532,-2.74184
41.90000,-6.98358,-2.74798
41.95000,-6.99185,-2.74480
42.00000,-7.00025,-2.74457
42.05000,-7.00825,-2.75269
42.10000,-7.01678,-2.74123
42.15000,-7.02505,-2.75528
42.20000,-7.03318,-2.74430
42.25000,-7.04172,-2.75521
42.30000,-7.05012,-2.74822
42.35000,-7.05825,-2.75557
42.40000,-7.06678,-2.75135
42.45000,-7.07518,-2.75747
42.50000,-7.08332,-2.75505
42.55000,-7.09172,-2.75791
42.60000,-7.10038,-2.75781
42.65000,-7.10852,-2.76080
42.70000,-7.11692,-2.75785
42.75000,-7.12532,-2.76292
42.80000,-7.13358,-2.75795
42.85000,-7.14185,-2.76445
42.90000,-7.15025,-2.76266
42.95000,-7.15838,-2.76381
43.00000,-7.16678,-2.76520
43.05000,-7.17518,-2.76373
43.10000,-7.18332,-2.76787
43.15000,-7.19185,-2.76562
43.20000,-7.20012,-2.76750
43.25000,-7.20825,-2.76854
43.30000,-7.21678,-2.76816
43.35000,-7.22532,-2.77023
43.40000,-7.23345,-2.77235
43.45000,-7.24172,-2.77130
43.50000,-7.25038,-2.77097
43.55000,-7.25838,-2.77366
43.60000,-7.26665,-2.77413
43.65000,-7.27505,-2.77334
43.70000,-7.28332,-2.77353
43.75000,-7.29158,-2.77518
43.80000,-7.29998,-2.77303
43.85000,-7.30825,-2.77665
43.90000,-7.31665,-2.77432
43.95000,-7.32505,-2.77608
44.00000,-7.33332,-2.77755
44.05000,-7.34185,-2.77577
44.10000,-7.35025,-2.77839
44.15000,-7.35838,-2.77608
44.20000,-7.36678,-2.77887
44.25000,-7.37518,-2.77742
44.30000,-7.38345,-2.77897
44.35000,-7.39172,-2.77815
44.40000,-7.40038,-2.77851
44.45000,-7.40852,-2.78172
44.50000,-7.41652,-2.77618
44.55000,-7.42505,-2.78158
44.60000,-7.43332,-2.77818
44.65000,-7.44145,-2.78073
44.70000,-7.44985,-2.77914
44.75000,-7.45851,-2.78080
44.80000,-7.46665,-2.78142
44.85000,-7.47492,-2.77851
44.90000,-7.48345,-2.78067
44.95000,-7.49158,-2.77915
45.00000,-7.49998,-2.77999
45.05000,-7.50838,-2.77794
45.10000,-7.51678,-2.77845
45.15000,-7.52505,-2.77762
45.20000,-7.53332,-2.77784
45.25000,-7.54145,-2.77503
45.30000,-7.55011,-2.77757
45.35000,-7.55838,-2.77596
45.40000,-7.56651,-2.77735
45.45000,-7.57518,-2.77485
45.50000,-7.58345,-2.77845
45.55000,-7.59158,-2.77548
45.60000,-7.60011,-2.77684
45.65000,-7.60865,-2.77741
45.70000,-7.61665,-2.77756
45.75000,-7.62505,-2.77859
45.80000,-7.63371,-2.77986
45.85000,-7.64185,-2.78188
45.90000,-7.65025,-2.78134
45.95000,-7.65865,-2.78305
46.00000,-7.66691,-2.78214
46.05000,-7.67505,-2.78337
46.10000,-7.68345,-2.78372
46.15000,-7.69171,-2.78380
46.20000,-7.70011,-2.78491
46.25000,-7.70838,-2.78421
46.30000,-7.71651,-2.78516
46.35000,-7.72505,-2.78439
46.40000,-7.73358,-2.78723
46.45000,-7.74158,-2.78619
46.50000,-7.75011,-2.78830
46.55000,-7.75865,-2.78729
46.60000,-7.76665,-2.79003
46.65000,-7.77505,-2.78983
46.70000,-7.78358,-2.78940
46.75000,-7.79171,-2.79215
46.80000,-7.79985,-2.79121
46.85000,-7.80838,-2.79221
46.90000,-7.81665,-2.79287
46.95000,-7.82478,-2.79387
47.00000,-7.83318,-2.79501
47.05000,-7.84158,-2.79578
47.10000,-7.84998,-2.79748
47.15000,-7.85825,-2.79740
47.20000,-7.86665,-2.79981
47.25000,-7.87505,-2.79915
47.30000,-7.88345,-2.80306
47.35000,-7.89158,-2.80263
47.40000,-7.90011,-2.80431
47.45000,-7.90851,-2.80547
47.50000,-7.91678,-2.80832
47.55000,-7.92491,-2.80832
47.60000,-7.93358,-2.81198
47.65000,-7.94185,-2.81192
47.70000,-7.94985,-2.81526
47.75000,-7.95838,-2.81443
47.80000,-7.96678,-2.81883
47.85000,-7.97491,-2.81659
47.90000,-7.98318,-2.82265
47.95000,-7.99185,-2.81888
48.00000,-8.00011,-2.82715
48.05000,-8.00838,-2.82251
48.10000,-8.01691,-2.83146
48.15000,-8.02518,-2.82666
48.20000,-8.03358,-2.83212
48.25000,-8.04185,-2.83088
48.30000,-8.05011,-2.83590
48.35000,-8.05851,-2.83286
48.40000,-8.06691,-2.83690
48.45000,-8.07505,-2.83666
48.50000,-8.08345,-2.84000
48.55000,-8.09185,-2.83998
48.60000,-8.09985,-2.84249
48.65000,-8.10851,-2.84383
48.70000,-8.11678,-2.84601
48.75000,-8.12491,-2.84645
48.80000,-8.13345,-2.84966
48.85000,-8.14198,-2.85164
48.90000,-8.15011,-2.85184
48.95000,-8.15838,-2.85366
49.00000,-8.16705,-2.85523
49.05000,-8.17518,-2.85847
49.10000,-8.18345,-2.85653
49.15000,-8.19185,-2.86099
49.20000,-8.19998,-2.86216
49.25000,-8.20825,-2.86263
49.30000,-8.21665,-2.86387
49.35000,-8.22505,-2.86626
49.40000,-8.23345,-2.86992
49.45000,-8.24171,-2.86843
49.50000,-8.24985,-2.87263
49.55000,-8.25838,-2.87247
49.60000,-8.26691,-2.87527
49.65000,-8.27491,-2.87719
49.70000,-8.28345,-2.87959
49.75000,-8.29198,-2.88110
49.80000,-8.29998,-2.88055
49.85000,-8.30825,-2.88442
49.90000,-8.31691,-2.88458
49.95000,-8.32505,-2.88770
50.00000,-8.33331,-2.88800
50.05000,-8.34171,-2.88940
50.10000,-8.34998,-2.89128
50.15000,-8.35825,-2.89280
50.20000,-8.36651,-2.89395
50.25000,-8.37491,-2.89550
50.30000,-8.38318,-2.89506
50.35000,-8.39145,-2.89800
50.40000,-8.39985,-2.90216
50.45000,-8.40851,-2.89969
50.50000,-8.41678,-2.90158
50.55000,-8.42505,-2.90410
50.60000,-8.43331,-2.90309
50.65000,-8.44185,-2.90423
50.70000,-8.45011,-2.90781
50.75000,-8.45838,-2.90561
50.80000,-8.46691,-2.90903
50.85000,-8.47518,-2.90849
50.90000,-8.48331,-2.90949
50.95000,-8.49171,-2.90767
51.00000,-8.50011,-2.91080
51.05000,-8.50825,-2.90728
51.10000,-8.51651,-2.91009
51.15000,-8.52518,-2.90922
51.20000,-8.53345,-2.90855
51.25000,-8.54171,-2.91245
51.30000,-8.55025,-2.90910
51.35000,-8.55851,-2.91137
51.40000,-8.56678,-2.91026
51.45000,-8.57531,-2.91174
51.50000,-8.58358,-2.91093
51.55000,-8.59198,-2.91207
51.60000,-8.60025,-2.91060
51.65000,-8.60838,-2.91205
51.70000,-8.61691,-2.91048
51.75000,-8.62505,-2.91015
51.80000,-8.63331,-2.91235
51.85000,-8.64171,-2.91091
51.90000,-8.65011,-2.91069
51.95000,-8.65825,-2.91338
52.00000,-8.66678,-2.91099
52.05000,-8.67531,-2.91357
52.10000,-8.68345,-2.91215
52.15000,-8.69171,-2.91294
52.20000,-8.70038,-2.91302
52.25000,-8.70851,-2.91277
52.30000,-8.71678,-2.91222
52.35000,-8.72518,-2.91306
52.40000,-8.73345,-2.91261
52.45000,-8.74171,-2.91226
52.50000,-8.75011,-2.91260
52.55000,-8.75825,-2.91279
52.60000,-8.76678,-2.91110
52.65000,-8.77505,-2.91414
52.70000,-8.78318,-2.91013
52.75000,-8.79185,-2.91324
52.80000,-8.80024,-2.91098
52.85000,-8.80824,-2.91224
52.90000,-8.81678,-2.91064
52.95000,-8.82518,-2.91038
53.00000,-8.83331,-2.91140
53.05000,-8.84171,-2.90985
53.10000,-8.85024,-2.90947
53.15000,-8.85838,-2.91061
53.20000,-8.86651,-2.90871
53.25000,-8.87491,-2.90756
53.30000,-8.88331,-2.90889
53.35000,-8.89158,-2.90786
53.40000,-8.89998,-2.90693
53.45000,-8.90824,-2.90783
53.50000,-8.91651,-2.90640
53.55000,-8.92491,-2.90772
53.60000,-8.93318,-2.90470
53.65000,-8.94171,-2.90814
53.70000,-8.94998,-2.90405
53.75000,-8.95824,-2.90690
53.80000,-8.96678,-2.90683
53.85000,-8.97531,-2.90517
53.90000,-8.98345,-2.90677
53.95000,-8.99171,-2.90715
54.00000,-9.00024,-2.89526
54.05000,-9.00838,-2.91232
54.10000,-9.01651,-2.90050
54.15000,-9.02504,-2.90985
54.20000,-9.03344,-2.89743
54.25000,-9.04158,-2.91076
54.30000,-9.04984,-2.89976
54.35000,-9.05864,-2.90763
54.40000,-9.06691,-2.90544
54.45000,-9.07504,-2.90854
54.50000,-9.08371,-2.90382
54.55000,-9.09198,-2.90897
54.60000,-9.10024,-2.90507
54.65000,-9.10851,-2.91142
54.70000,-9.11691,-2.90487
54.75000,-9.12531,-2.91099
54.80000,-9.13358,-2.90802
54.85000,-9.14171,-2.90965
54.90000,-9.15024,-2.91022
54.95000,-9.15851,-2.91119
55.00000,-9.16651,-2.90939
55.05000,-9.17504,-2.91198
55.10000,-9.18344,-2.91174
55.15000,-9.19158,-2.91279
55.20000,-9.20011,-2.91354
55.25000,-9.20864,-2.91444
55.30000,-9.21678,-2.91583
55.35000,-9.22504,-2.91639
55.40000,-9.23358,-2.91560
55.45000,-9.24184,-2.91767
55.50000,-9.25011,-2.92180
55.55000,-9.25851,-2.91026
55.60000,-9.26691,-2.92807
55.65000,-9.27518,-2.91192
55.70000,-9.28344,-2.92285
55.75000,-9.29171,-2.91499
55.80000,-9.30011,-2.92352
55.85000,-9.30838,-2.91351
55.90000,-9.31651,-2.92271
55.95000,-9.32504,-2.91454
56.00000,-9.33344,-2.92257
56.05000,-9.34158,-2.91870
56.10000,-9.34998,-2.92031
56.15000,-9.35851,-2.91858
56.20000,-9.36664,-2.92515
56.25000,-9.37504,-2.91631
56.30000,-9.38358,-2.92643
56.35000,-9.39184,-2.92122
56.40000,-9.39998,-2.92369
56.45000,-9.40851,-2.92343
56.50000,-9.41678,-2.92552
56.55000,-9.42491,-2.92501
56.60000,-9.43331,-2.92609
56.65000,-9.44158,-2.92736
56.70000,-9.44984,-2.92835
56.75000,-9.45824,-2.92849
56.80000,-9.46664,-2.93043
56.85000,-9.47504,-2.93043
56.90000,-9.48358,-2.93460
56.95000,-9.49171,-2.93136
57.00000,-9.50011,-2.93606
57.05000,-9.50864,-2.93379
57.10000,-9.51678,-2.93850
57.15000,-9.52491,-2.93713
57.20000,-9.53344,-2.93833
57.25000,-9.54171,-2.94032
57.30000,-9.54984,-2.94111
57.35000,-9.55838,-2.94156
57.40000,-9.56691,-2.94486
57.45000,-9.57504,-2.94390
57.50000,-9.58331,-2.94705
57.55000,-9.59184,-2.94665
57.60000,-9.60011,-2.94987
57.65000,-9.60838,-2.95009
57.70000,-9.61691,-2.95236
57.75000,-9.62531,-2.95323
57.80000,-9.63358,-2.95572
57.85000,-9.64184,-2.95569
57.90000,-9.65024,-2.95887
57.95000,-9.65864,-2.95954
58.00000,-9.66678,-2.95997
58.05000,-9.67491,-2.96141
58.10000,-9.68358,-2.96317
58.15000,-9.69184,-2.96447
58.20000,-9.69984,-2.96638
58.25000,-9.70851,-2.96728
58.30000,-9.71678,-2.96968
58.35000,-9.72478,-2.96870
58.40000,-9.73331,-2.97217
58.45000,-9.74198,-2.97274
58.50000,-9.75011,-2.97659
58.55000,-9.75838,-2.97384
58.60000,-9.76691,-2.97833
58.65000,-9.77504,-2.98008
58.70000,-9.78344,-2.97964
58.75000,-9.79184,-2.98194
58.80000,-9.80011,-2.98439
58.85000,-9.80851,-2.98381
58.90000,-9.81678,-2.98643
58.95000,-9.82504,-2.98713
59.00000,-9.83358,-2.98941
59.05000,-9.84171,-2.99093
59.10000,-9.84984,-2.99166
59.15000,-9.85851,-2.99317
59.20000,-9.86691,-2.99510
59.25000,-9.87504,-2.99527
59.30000,-9.88344,-2.99989
59.35000,-9.89198,-2.99685
59.40000,-9.89998,-3.00194
59.45000,-9.90838,-3.00119
59.50000,-9.91704,-3.00344
59.55000,-9.92504,-3.00465
59.60000,-9.93331,-3.00650
59.65000,-9.94171,-3.00604
59.70000,-9.94998,-3.00789
59.75000,-9.95811,-3.00986
59.80000,-9.96651,-3.00963
59.85000,-9.97491,-3.01207
59.90000,-9.98318,-3.01183
59.95000,-9.99144,-3.01251
60.00000,-9.99984,-3.01626
60.05000,-10.00851,-3.01247
60.10000,-10.01678,-3.01836
60.15000,-10.02504,-3.01753
60.20000,-10.03344,-3.01837
60.25000,-10.04198,-3.02013
60.30000,-10.05011,-3.02277
60.35000,-10.05838,-3.02262
60.40000,-10.06691,-3.02402
60.45000,-10.07518,-3.02753
60.50000,-10.08331,-3.02545
60.55000,-10.09171,-3.02928
60.60000,-10.10011,-3.03006
60.65000,-10.10824,-3.03033
60.70000,-10.11651,-3.03424
60.75000,-10.12504,-3.03256
60.80000,-10.13344,-3.03664
60.85000,-10.14171,-3.03781
60.90000,-10.15024,-3.03895
60.95000,-10.15837,-3.04149
61.00000,-10.16664,-3.04209
61.05000,-10.17491,-3.04404
61.10000,-10.18331,-3.04415
61.15000,-10.19171,-3.04717
61.20000,-10.19998,-3.04840
61.25000,-10.20811,-3.04983
61.30000,-10.21678,-3.05035
61.35000,-10.22531,-3.05521
61.40000,-10.23331,-3.05476
61.45000,-10.24184,-3.05564
61.50000,-10.25011,-3.05963
61.55000,-10.25824,-3.06005
61.60000,-10.26664,-3.06067
61.65000,-10.27517,-3.06241
61.70000,-10.28331,-3.06570
61.75000,-10.29158,-3.06512
61.80000,-10.30011,-3.06749
61.85000,-10.30851,-3.06988
61.90000,-10.31691,-3.07094
61.95000,-10.32517,-3.07318
62.00000,-10.33358,-3.07348
62.05000,-10.34171,-3.07533
62.10000,-10.34997,-3.07665
62.15000,-10.35837,-3.07883
62.20000,-10.36678,-3.07884
62.25000,-10.37504,-3.08169
62.30000,-10.38317,-3.08410
62.35000,-10.39184,-3.08337
62.40000,-10.40024,-3.08727
62.45000,-10.40824,-3.08674
62.50000,-10.41678,-3.08830
62.55000,-10.42531,-3.09111
62.60000,-10.43344,-3.09142
62.65000,-10.44171,-3.09321
62.70000,-10.45024,-3.09279
62.75000,-10.45837,-3.09583
62.80000,-10.46664,-3.09471
62.85000,-10.47517,-3.09824
62.90000,-10.48344,-3.09864
62.95000,-10.49171,-3.09856
63.00000,-10.49997,-3.10179
63.05000,-10.50824,-3.10126
63.10000,-10.51651,-3.10419
63.15000,-10.52491,-3.10356
63.20000,-10.53317,-3.10800
63.25000,-10.54184,-3.10589
63.30000,-10.55024,-3.11109
63.35000,-10.55837,-3.11103
63.40000,-10.56677,-3.11262
63.45000,-10.57531,-3.11372
63.50000,-10.58344,-3.11620
63.55000,-10.59171,-3.11531
63.60000,-10.60024,-3.11786
63.65000,-10.60851,-3.11728
63.70000,-10.61664,-3.12012
63.75000,-10.62504,-3.11831
63.80000,-10.63331,-3.12385
63.85000,-10.64144,-3.12076
63.90000,-10.64984,-3.12473
63.95000,-10.65851,-3.12443
64.00000,-10.66677,-3.12797
64.05000,-10.67517,-3.12769
64.10001,-10.68357,-3.13003
64.15000,-10.69184,-3.13017
64.20000,-10.70024,-3.13251
64.25000,-10.70864,-3.13172
64.30000,-10.71677,-3.13400
64.35001,-10.72517,-3.13312
64.40000,-10.73344,-3.13668
64.45000,-10.74157,-3.13578
64.50000,-10.75024,-3.13721
64.55000,-10.75851,-3.13902
64.60001,-10.76664,-3.13919
64.65000,-10.77517,-3.13999
64.70000,-10.78344,-3.14052
64.75000,-10.79144,-3.14000
64.80000,-10.80011,-3.14104
64.85001,-10.80864,-3.14289
64.90000,-10.81664,-3.14181
64.95000,-10.82517,-3.14366
65.00000,-10.83371,-3.14110
65.05000,-10.84184,-3.14486
65.10001,-10.85011,-3.14154
65.15000,-10.85851,-3.14431
65.20000,-10.86691,-3.14317
65.25000,-10.87517,-3.14476
65.30000,-10.88344,-3.14344
65.35001,-10.89171,-3.14563
65.40000,-10.90024,-3.14519
65.45000,-10.90851,-3.14539
65.50000,-10.91664,-3.14633
65.55000,-10.92517,-3.14613
65.60001,-10.93344,-3.14747
65.65000,-10.94157,-3.14544
65.70001,-10.94997,-3.14529
65.75000,-10.95864,-3.14763
65.80000,-10.96664,-3.14866
65.85001,-10.97504,-3.14760
65.90000,-10.98371,-3.15005
65.95001,-10.99171,-3.15098
66.00000,-10.99997,-3.15218
66.05000,-11.00837,-3.15275
66.10001,-11.01664,-3.15325
66.15000,-11.02477,-3.15361
66.20001,-11.03317,-3.15581
66.25000,-11.04157,-3.15737
66.30000,-11.04997,-3.15789
66.35001,-11.05824,-3.15898
66.40000,-11.06664,-3.15941
66.45001,-11.07504,-3.16172
66.50000,-11.08344,-3.16167
66.55000,-11.09157,-3.16368
66.60001,-11.09997,-3.16425
66.65000,-11.10851,-3.16479
66.70001,-11.11677,-3.16716
66.75000,-11.12504,-3.16736
66.80000,-11.13357,-3.16825
66.85001,-11.14184,-3.16887
66.90000,-11.14984,-3.17173
66.95001,-11.15837,-3.16828
67.00000,-11.16677,-3.17197
67.05000,-11.17491,-3.17144
67.10001,-11.18331,-3.17154
67.15000,-11.19184,-3.17381
67.20001,-11.19997,-3.17205
67.25000,-11.20837,-3.17316
67.30000,-11.21691,-3.17429
67.35001,-11.22517,-3.17442
67.40000,-11.23344,-3.17408
67.45001,-11.24184,-3.17438
67.50000,-11.25024,-3.17487
67.55000,-11.25864,-3.17390
67.60001,-11.26691,-3.17557
67.65000,-11.27504,-3.17205
67.70001,-11.28371,-3.17316
67.75000,-11.29184,-3.17306
67.80000,-11.29984,-3.17107
67.85001,-11.30851,-3.17344
67.90000,-11.31677,-3.17207
67.95001,-11.32491,-3.17235
68.00000,-11.33344,-3.17375
68.05000,-11.34197,-3.17406
68.10001,-11.35011,-3.17261
68.15000,-11.35837,-3.17266
68.20001,-11.36704,-3.17354
68.25000,-11.37517,-3.17139
68.30000,-11.38344,-3.17629
68.35001,-11.39197,-3.16908
68.40000,-11.40024,-3.17823
68.45001,-11.40851,-3.17143
68.50000,-11.41677,-3.17742
68.55000,-11.42504,-3.17250
68.60001,-11.43357,-3.17744
68.65000,-11.44171,-3.17412
68.70001,-11.44984,-3.17508
68.75000,-11.45824,-3.17896
68.80000,-11.46677,-3.17328
68.85001,-11.47477,-3.18017
68.90000,-11.48331,-3.17612
68.95001,-11.49197,-3.17960
69.00000,-11.49997,-3.17905
69.05000,-11.50824,-3.17917
69.10001,-11.51691,-3.17995
69.15000,-11.52504,-3.17901
69.20001,-11.53331,-3.18266
69.25000,-11.54171,-3.17738
69.30000,-11.54997,-3.18435
69.35001,-11.55824,-3.17591
69.40000,-11.56664,-3.18576
69.45001,-11.57491,-3.17644
69.50000,-11.58330,-3.18478
69.55000,-11.59157,-3.17865
69.60001,-11.59984,-3.18554
69.65000,-11.60837,-3.18282
69.70001,-11.61691,-3.18000
69.75000,-11.62504,-3.18873
69.80000,-11.63344,-3.18165
69.85001,-11.64197,-3.18865
69.90000,-11.65011,-3.18444
69.95001,-11.65837,-3.18848
70.00000,-11.66691,-3.18781
70.05000,-11.67504,-3.18992
70.10001,-11.68330,-3.19215
70.15000,-11.69184,-3.18668
70.20001,-11.70010,-3.19644
70.25000,-11.70810,-3.18957
70.30000,-11.71650,-3.19487
70.35001,-11.72517,-3.19411
70.40000,-11.73344,-3.19728
70.45001,-11.74170,-3.19639
70.50000,-11.75024,-3.19843
70.55000,-11.75864,-3.19897
70.60001,-11.76677,-3.20148
70.65000,-11.77517,-3.19777
70.70001,-11.78357,-3.20501
70.75000,-11.79197,-3.19937
70.80000,-11.80024,-3.20721
70.85001,-11.80837,-3.20101
70.90000,-11.81690,-3.20889
70.95001,-11.82517,-3.20754
71.00000,-11.83317,-3.20513
71.05000,-11.84170,-3.20987
71.10001,-11.84997,-3.20829
71.15000,-11.85810,-3.21239
71.20001,-11.86677,-3.20804
71.25000,-11.87530,-3.21529
71.30000,-11.88344,-3.21219
71.35001,-11.89170,-3.21021
71.40000,-11.90037,-3.21789
71.45001,-11.90850,-3.20774
71.50000,-11.91677,-3.21875
71.55000,-11.92517,-3.20964
71.60001,-11.93357,-3.21959
71.65000,-11.94184,-3.20885
71.70001,-11.95010,-3.21711
71.75000,-11.95837,-3.20950
71.80000,-11.96677,-3.21643
71.85001,-11.97504,-3.21731
71.90000,-11.98317,-3.21432
71.95001,-11.99184,-3.21947
72.00000,-12.00010,-3.21979
72.05000,-12.00824,-3.22306
72.10001,-12.01677,-3.22148
72.15000,-12.02530,-3.22574
72.20001,-12.03344,-3.22653
72.25000,-12.04170,-3.22740
72.30000,-12.05024,-3.22945
72.35001,-12.05837,-3.23070
72.40000,-12.06664,-3.23174
72.45001,-12.07504,-3.23514
72.50000,-12.08330,-3.23415
72.55000,-12.09157,-3.23767
72.60001,-12.09984,-3.23683
72.65000,-12.10824,-3.24063
72.70001,-12.11650,-3.23871
72.75000,-12.12477,-3.24476
72.80000,-12.13317,-3.24036
72.85001,-12.14184,-3.24750
72.90000,-12.15010,-3.24424
72.95001,-12.15824,-3.25063
73.00000,-12.16677,-3.24647
73.05000,-12.17517,-3.25178
73.10001,-12.18330,-3.25064
73.15000,-12.19157,-3.25361
73.20001,-12.20024,-3.25272
73.25000,-12.20837,-3.25673
73.30000,-12.21664,-3.25451
73.35001,-12.22517,-3.25763
73.40000,-12.23344,-3.25842
73.45001,-12.24157,-3.25837
73.50000,-12.24997,-3.25924
73.55000,-12.25850,-3.26218
73.60001,-12.26664,-3.26358
73.65000,-12.27504,-3.26318
73.70001,-12.28357,-3.26789
73.75000,-12.29184,-3.26677
73.80000,-12.30024,-3.26924
73.85001,-12.30850,-3.27005
73.90000,-12.31690,-3.27278
73.95001,-12.32517,-3.27333
74.00000,-12.33357,-3.27658
74.05000,-12.34170,-3.27546
74.10001,-12.35024,-3.27893
74.15000,-12.35850,-3.27911
74.20001,-12.36664,-3.28118
74.25000,-12.37504,-3.28212
74.30000,-12.38344,-3.28513
74.35001,-12.39170,-3.28394
74.40000,-12.40010,-3.28720
74.45001,-12.40864,-3.28932
74.50000,-12.41677,-3.29015
74.55000,-12.42504,-3.29133
74.60001,-12.43357,-3.29414
74.65000,-12.44184,-3.29487
74.70001,-12.45010,-3.29781
74.75000,-12.45850,-3.29921
74.80000,-12.46677,-3.30070
74.85001,-12.47504,-3.30257
74.90000,-12.48344,-3.30412
74.95001,-12.49170,-3.30402
75.00000,-12.50010,-3.30669
75.05000,-12.50837,-3.30905
75.10001,-12.51650,-3.30855
75.15000,-12.52504,-3.31094
75.20001,-12.53344,-3.31346
75.25000,-12.54157,-3.31389
75.30000,-12.55010,-3.31549
75.35001,-12.55850,-3.31762
75.40000,-12.56664,-3.31954
75.45001,-12.57490,-3.31917
75.50000,-12.58357,-3.32215
75.55000,-12.59170,-3.32364
75.60001,-12.59984,-3.32629
75.65000,-12.60837,-3.32597
75.70001,-12.61664,-3.33022
75.75000,-12.62490,-3.33024
75.80000,-12.63330,-3.33333
75.85001,-12.64170,-3.33497
75.90000,-12.64997,-3.33641
75.95001,-12.65824,-3.33779
76.00000,-12.66664,-3.34088
76.05000,-12.67517,-3.34085
76.10001,-12.68344,-3.34581
76.15000,-12.69170,-3.34569
76.20001,-12.69997,-3.34798
76.25000,-12.70850,-3.34969
76.30000,-12.71677,-3.35144
76.35001,-12.72504,-3.35340
76.40000,-12.73357,-3.35457
76.45001,-12.74170,-3.35760
76.50000,-12.74984,-3.35625
76.55000,-12.75837,-3.36007
76.60001,-12.76677,-3.36004
76.65000,-12.77477,-3.36249
76.70001,-12.78317,-3.36242
76.75000,-12.79170,-3.36530
76.80000,-12.80010,-3.36614
76.85001,-12.80837,-3.36823
76.90000,-12.81690,-3.36875
76.95001,-12.82517,-3.37138
77.00000,-12.83357,-3.37281
77.05000,-12.84184,-3.37288
77.10001,-12.85010,-3.37555
77.15000,-12.85850,-3.37771
77.20001,-12.86690,-3.37837
77.25000,-12.87504,-3.37954
77.30000,-12.88370,-3.38183
77.35001,-12.89184,-3.38450
77.40000,-12.89997,-3.38268
77.45001,-12.90850,-3.38630
77.50000,-12.91677,-3.38840
77.55000,-12.92490,-3.38639
77.60001,-12.93343,-3.39087
77.65000,-12.94197,-3.39097
77.70001,-12.95010,-3.39315
77.75000,-12.95837,-3.39410
77.80000,-12.96704,-3.39758
77.85001,-12.97530,-3.39574
77.90000,-12.98357,-3.39779
77.95001,-12.99197,-3.40097
78.00000,-13.00023,-3.39936
78.05000,-13.00837,-3.40287
78.10001,-13.01677,-3.40425
78.15000,-13.02504,-3.40419
78.20001,-13.03343,-3.40526
78.25000,-13.04170,-3.40756
78.30000,-13.04983,-3.41024
78.35001,-13.05850,-3.40922
78.40000,-13.06677,-3.41876
78.45001,-13.07477,-3.41325
78.50000,-13.08330,-3.41957
78.55000,-13.09197,-3.42222
78.60001,-13.09997,-3.42354
78.65000,-13.10837,-3.42518
78.70001,-13.11690,-3.42917
78.75000,-13.12503,-3.43040
78.80000,-13.13330,-3.43240
78.85001,-13.14183,-3.43351
78.90000,-13.14997,-3.43933
78.95001,-13.15810,-3.43558
79.00000,-13.16650,-3.44172
79.05000,-13.17490,-3.44404
79.10001,-13.18303,-3.44078
79.15000,-13.19143,-3.44841
79.20001,-13.19983,-3.44710
79.25000,-13.20837,-3.45150
79.30000,-13.21677,-3.45209
79.35001,-13.22490,-3.45751
79.40000,-13.23330,-3.45402
79.45001,-13.24183,-3.46104
79.50000,-13.24997,-3.45941
79.55000,-13.25837,-3.46483
79.60001,-13.26690,-3.46130
79.65000,-13.27503,-3.47169
79.70001,-13.28317,-3.46082
79.75000,-13.29170,-3.47519
79.80000,-13.30010,-3.46852
79.85001,-13.30823,-3.47468
79.90000,-13.31650,-3.47501
79.95001,-13.32517,-3.47805
80.00000,-13.33343,-3.48172
80.05000,-13.34170,-3.48102
80.10001,-13.35023,-3.48743
80.15000,-13.35863,-3.48616
80.20001,-13.36690,-3.49019
80.25000,-13.37517,-3.49091
80.30000,-13.38357,-3.49797
80.35001,-13.39197,-3.48898
80.40000,-13.40023,-3.50603
80.45001,-13.40850,-3.49336
80.50001,-13.41703,-3.50749
80.55000,-13.42517,-3.49717
80.60001,-13.43330,-3.51265
80.65000,-13.44183,-3.50159
80.70001,-13.45010,-3.51621
80.75001,-13.45810,-3.50849
80.80000,-13.46677,-3.51922
80.85001,-13.47530,-3.51268
80.90000,-13.48343,-3.53033
80.95001,-13.49183,-3.51617
81.00001,-13.50023,-3.53287
81.05000,-13.50837,-3.52751
81.10001,-13.51663,-3.53306
81.15000,-13.52517,-3.53453
81.20001,-13.53357,-3.53641
81.25001,-13.54183,-3.54503
81.30000,-13.55010,-3.53590
81.35001,-13.55837,-3.55565
81.40000,-13.56677,-3.53963
81.45001,-13.57503,-3.55902
81.50001,-13.58317,-3.54917
81.55000,-13.59170,-3.56179
81.60001,-13.59997,-3.55614
81.65000,-13.60823,-3.57020
81.70001,-13.61663,-3.56308
81.75001,-13.62530,-3.57577
81.80000,-13.63330,-3.57416
81.85001,-13.64170,-3.57926
81.90000,-13.65023,-3.57767
81.95001,-13.65837,-3.58926
82.00001,-13.66663,-3.58363
82.05000,-13.67503,-3.59214
82.10001,-13.68330,-3.59400
82.15000,-13.69157,-3.59541
82.20001,-13.69997,-3.60201
82.25001,-13.70823,-3.60183
82.30000,-13.71650,-3.60807
82.35001,-13.72490,-3.61142
82.40000,-13.73317,-3.60961
82.45001,-13.74170,-3.62330
82.50001,-13.75023,-3.61457
82.55000,-13.75837,-3.63202
82.60001,-13.76663,-3.62275
82.65000,-13.77517,-3.63680
82.70001,-13.78343,-3.63348
82.75001,-13.79170,-3.64421
82.80000,-13.80023,-3.64350
82.85001,-13.80837,-3.64988
82.90000,-13.81650,-3.65214
82.95001,-13.82517,-3.65589
83.00001,-13.83343,-3.66037
83.05000,-13.84157,-3.66392
83.10001,-13.84997,-3.66607
83.15000,-13.85850,-3.67227
83.20001,-13.86677,-3.67586
83.25001,-13.87503,-3.67801
83.30000,-13.88357,-3.68360
83.35001,-13.89183,-3.68482
83.40000,-13.90010,-3.69171
83.45001,-13.90850,-3.69400
83.50001,-13.91690,-3.69923
83.55000,-13.92517,-3.70191
83.60001,-13.93357,-3.70751
83.65000,-13.94170,-3.70947
83.70001,-13.95010,-3.71318
83.75001,-13.95837,-3.71891
83.80000,-13.96650,-3.72023
83.85001,-13.97503,-3.72438
83.90000,-13.98330,-3.72768
83.95001,-13.99143,-3.73155
84.00001,-14.00010,-3.73303
84.05000,-14.00863,-3.73993
84.10001,-14.01677,-3.74252
84.15000,-14.02517,-3.74717
84.20001,-14.03370,-3.74976
84.25001,-14.04197,-3.75579
84.30000,-14.05010,-3.75700
84.35001,-14.05850,-3.76135
84.40000,-14.06690,-3.76422
84.45001,-14.07503,-3.76969
84.50001,-14.08330,-3.77049
84.55000,-14.09170,-3.77615
84.60001,-14.10010,-3.77923
84.65000,-14.10823,-3.78276
84.70001,-14.11650,-3.78687
84.75001,-14.12503,-3.78886
84.80000,-14.13343,-3.79653
84.85001,-14.14157,-3.79730
84.90000,-14.15010,-3.80254
84.95001,-14.15863,-3.80630
85.00001,-14.16663,-3.81134
85.05000,-14.17490,-3.81367
85.10001,-14.18343,-3.81778
85.15000,-14.19170,-3.82388
85.20001,-14.19997,-3.82475
85.25001,-14.20850,-3.83113
85.30000,-14.21676,-3.83456
85.35001,-14.22490,-3.83589
85.40000,-14.23317,-3.84276
85.45001,-14.24157,-3.84624
85.50001,-14.24983,-3.84886
85.55000,-14.25823,-3.85703
85.60001,-14.26650,-3.85692
85.65000,-14.27503,-3.86427
85.70001,-14.28343,-3.86817
85.75001,-14.29170,-3.87466
85.80000,-14.30010,-3.87647
85.85001,-14.30850,-3.88366
85.90000,-14.31676,-3.88752
85.95001,-14.32503,-3.89172
86.00001,-14.33370,-3.89594
86.05000,-14.34183,-3.90192
86.10001,-14.34983,-3.90349
86.15000,-14.35850,-3.90898
86.20001,-14.36676,-3.91475
86.25001,-14.37490,-3.91558
86.30000,-14.38317,-3.92245
86.35001,-14.39183,-3.92562
86.40000,-14.39996,-3.93314
86.45001,-14.40823,-3.93165
86.50001,-14.41676,-3.94463
86.55000,-14.42517,-3.94224
86.60001,-14.43343,-3.95004
86.65000,-14.44183,-3.95367
86.70001,-14.45023,-3.95867
86.75001,-14.45863,-3.96270
86.80000,-14.46690,-3.96470
86.85001,-14.47503,-3.96884
86.90000,-14.48356,-3.97281
86.95001,-14.49170,-3.97716
87.00001,-14.49983,-3.97903
87.05000,-14.50850,-3.98996
87.10001,-14.51676,-3.98332
87.15000,-14.52490,-4.00152
87.20001,-14.53343,-3.99281
87.25001,-14.54210,-4.00928
87.30000,-14.55010,-4.00479
87.35001,-14.55836,-4.01700
87.40000,-14.56690,-4.01360
87.45001,-14.57516,-4.02594
87.50001,-14.58330,-4.02622
87.55000,-14.59183,-4.03172
87.60001,-14.60023,-4.03399
87.65000,-14.60836,-4.04889
87.70001,-14.61676,-4.03579
87.75001,-14.62490,-4.06119
87.80000,-14.63343,-4.04901
87.85001,-14.64170,-4.06761
87.90000,-14.64983,-4.06439
87.95001,-14.65836,-4.07340
88.00001,-14.66676,-4.07675
88.05000,-14.67476,-4.08304
88.10001,-14.68330,-4.08831
88.15000,-14.69196,-4.09231
88.20001,-14.70010,-4.09823
88.25001,-14.70836,-4.10695
88.30000,-14.71690,-4.10047
88.35001,-14.72516,-4.12043
88.40000,-14.73343,-4.11114
88.45001,-14.74170,-4.12314
88.50001,-14.75010,-4.12445
88.55000,-14.75823,-4.13155
88.60001,-14.76663,-4.13514
88.65000,-14.77490,-4.13920
88.70001,-14.78316,-4.14624
88.75001,-14.79156,-4.14747
88.80000,-14.79996,-4.15450
88.85001,-14.80850,-4.16264
88.90000,-14.81690,-4.16149
88.95001,-14.82490,-4.17564
89.00001,-14.83330,-4.17091
89.05000,-14.84183,-4.18241
89.10001,-14.84996,-4.18602
89.15000,-14.85823,-4.19073
89.20001,-14.86690,-4.19617
89.25001,-14.87516,-4.20238
89.30000,-14.88330,-4.20942
89.35001,-14.89170,-4.20902
89.40000,-14.90023,-4.22113
89.45001,-14.90823,-4.21725
89.50001,-14.91650,-4.22836
89.55000,-14.92503,-4.22960
89.60001,-14.93330,-4.23640
89.65000,-14.94170,-4.23960
89.70001,-14.95010,-4.24984
89.75001,-14.95863,-4.24935
89.80000,-14.96690,-4.26030
89.85001,-14.97516,-4.26142
89.90000,-14.98343,-4.26907
89.95001,-14.99196,-4.27290
90.00001,-15.00010,-4.28323
90.05000,-15.00823,-4.28036
90.10001,-15.01690,-4.29499
90.15000,-15.02516,-4.29553
90.15801,-15.02650,-4.29708
