Time,Extension,Load
(sec),(mm),(N)
0.00000,-0.00027,-1.02753
0.05000,-0.00133,-1.02622
0.10000,-0.00573,-1.03442
0.15000,-0.01493,-1.05162
0.20000,-0.02547,-1.08209
0.25000,-0.03547,-1.10696
0.30000,-0.04573,-1.13404
0.35000,-0.05533,-1.15571
0.40000,-0.06440,-1.17810
0.45000,-0.07360,-1.19671
0.50000,-0.08227,-1.21583
0.55000,-0.09080,-1.23383
0.60000,-0.09960,-1.25089
0.65000,-0.10813,-1.26887
0.70000,-0.11653,-1.28553
0.75000,-0.12493,-1.30113
0.80000,-0.13320,-1.31777
0.85000,-0.14160,-1.33232
0.90000,-0.14987,-1.34952
0.95000,-0.15827,-1.36354
1.00000,-0.16693,-1.37771
1.05000,-0.17520,-1.39720
1.10000,-0.18333,-1.40825
1.15000,-0.19187,-1.42531
1.20000,-0.20040,-1.43781
1.25000,-0.20853,-1.45420
1.30000,-0.21693,-1.46604
1.35000,-0.22560,-1.48377
1.40000,-0.23360,-1.49482
1.45000,-0.24187,-1.51151
1.50000,-0.25040,-1.52173
1.55000,-0.25853,-1.53871
1.60000,-0.26667,-1.54769
1.65000,-0.27507,-1.56521
1.70000,-0.28333,-1.57554
1.75000,-0.29160,-1.58969
1.80000,-0.29987,-1.60316
1.85000,-0.30840,-1.61671
1.90000,-0.31693,-1.62792
1.95000,-0.32533,-1.64267
2.00000,-0.33360,-1.65477
2.05000,-0.34200,-1.66817
2.10000,-0.35040,-1.67874
2.15000,-0.35853,-1.69493
2.20000,-0.36693,-1.70154
2.25000,-0.37547,-1.71522
2.30000,-0.38360,-1.72419
2.35000,-0.39173,-1.73829
2.40000,-0.40027,-1.74856
2.45000,-0.40853,-1.76113
2.50000,-0.41667,-1.77132
2.55000,-0.42507,-1.78143
2.60000,-0.43360,-1.79351
2.65000,-0.44173,-1.80580
2.70000,-0.45013,-1.81765
2.75000,-0.45867,-1.82793
2.80000,-0.46693,-1.84054
2.85000,-0.47533,-1.85007
2.90000,-0.48360,-1.86111
2.95000,-0.49213,-1.87451
3.00000,-0.50040,-1.88363
3.05000,-0.50867,-1.89485
3.10000,-0.51680,-1.90746
3.15000,-0.52520,-1.91732
3.20000,-0.53347,-1.92983
3.25000,-0.54173,-1.93787
3.30000,-0.55027,-1.94991
3.35000,-0.55853,-1.95990
3.40000,-0.56667,-1.97145
3.45000,-0.57533,-1.97788
3.50000,-0.58373,-1.99347
3.55000,-0.59187,-1.99850
3.60000,-0.60027,-2.00876
3.65000,-0.60893,-2.01790
3.70000,-0.61693,-2.03097
3.75000,-0.62520,-2.03846
3.80000,-0.63360,-2.04949
3.85000,-0.64200,-2.05766
3.90000,-0.65027,-2.06940
3.95000,-0.65853,-2.07867
4.00000,-0.66693,-2.09152
4.05000,-0.67520,-2.10059
4.10000,-0.68346,-2.11231
4.15000,-0.69160,-2.11794
4.20000,-0.70026,-2.13419
4.25000,-0.70853,-2.14106
4.30000,-0.71680,-2.15486
4.35000,-0.72533,-2.16141
4.40000,-0.73386,-2.17552
4.45000,-0.74186,-2.18322
4.50000,-0.75026,-2.19405
4.55000,-0.75880,-2.20464
4.60000,-0.76680,-2.21577
4.65000,-0.77506,-2.22312
4.70000,-0.78346,-2.23491
4.75000,-0.79173,-2.24305
4.80000,-0.80000,-2.25382
4.85000,-0.80840,-2.26552
4.90000,-0.81680,-2.27427
4.95000,-0.82506,-2.28527
5.00000,-0.83346,-2.29344
5.05000,-0.84173,-2.30383
5.10000,-0.85026,-2.31250
5.15000,-0.85866,-2.32513
5.20000,-0.86693,-2.33280
5.25000,-0.87533,-2.34353
5.30000,-0.88386,-2.35140
5.35000,-0.89200,-2.36291
5.40000,-0.90026,-2.37156
5.45000,-0.90866,-2.38083
5.50000,-0.91680,-2.38813
5.55000,-0.92493,-2.39749
5.60000,-0.93360,-2.40477
5.65000,-0.94186,-2.41770
5.70000,-0.95000,-2.42351
5.75000,-0.95840,-2.43240
5.80000,-0.96693,-2.43942
5.85000,-0.97506,-2.44914
5.90000,-0.98346,-2.45719
5.95000,-0.99213,-2.46861
6.00000,-1.00040,-2.47636
6.05000,-1.00866,-2.48580
6.10000,-1.01706,-2.49522
6.15000,-1.02546,-2.50349
6.20000,-1.03373,-2.51404
6.25000,-1.04200,-2.52219
6.30000,-1.05026,-2.53153
6.35000,-1.05866,-2.54031
6.40000,-1.06693,-2.55015
6.45000,-1.07506,-2.55816
6.50000,-1.08360,-2.56912
6.55000,-1.09186,-2.57703
6.60000,-1.10000,-2.58639
6.65000,-1.10866,-2.59505
6.70000,-1.11720,-2.60602
6.75000,-1.12520,-2.61345
6.80000,-1.13346,-2.62305
6.85000,-1.14213,-2.63184
6.90000,-1.15026,-2.64159
6.95000,-1.15866,-2.65007
7.00000,-1.16706,-2.65997
7.05000,-1.17533,-2.66804
7.10000,-1.18360,-2.67742
7.15000,-1.19186,-2.68445
7.20000,-1.20026,-2.69426
7.25000,-1.20866,-2.70195
7.30000,-1.21693,-2.71142
7.35000,-1.22506,-2.71872
7.40000,-1.23360,-2.72763
7.45000,-1.24200,-2.73668
7.50000,-1.25013,-2.74455
7.55000,-1.25866,-2.75343
7.60000,-1.26706,-2.76144
7.65000,-1.27520,-2.77080
7.70000,-1.28346,-2.77832
7.75000,-1.29200,-2.78604
7.80000,-1.30013,-2.79526
7.85000,-1.30840,-2.80183
7.90000,-1.31693,-2.81097
7.95000,-1.32520,-2.81911
8.00000,-1.33333,-2.82682
8.05000,-1.34173,-2.83503
8.10000,-1.35000,-2.84293
8.15000,-1.35826,-2.85046
8.20000,-1.36666,-2.85884
8.25000,-1.37520,-2.86821
8.30000,-1.38360,-2.87479
8.35000,-1.39200,-2.88448
8.40000,-1.40013,-2.89111
8.45000,-1.40866,-2.89901
8.50000,-1.41706,-2.90803
8.55000,-1.42520,-2.91496
8.60000,-1.43346,-2.92293
8.65000,-1.44213,-2.93037
8.70000,-1.45026,-2.93839
8.75000,-1.45840,-2.94532
8.80000,-1.46693,-2.95382
8.85000,-1.47506,-2.96125
8.90000,-1.48333,-2.96862
8.95000,-1.49173,-2.97638
9.00000,-1.50026,-2.98433
9.05000,-1.50853,-2.99174
9.10000,-1.51693,-3.00021
9.15000,-1.52546,-3.00815
9.20000,-1.53360,-3.01395
9.25000,-1.54200,-3.02226
9.30000,-1.55040,-3.03008
9.35000,-1.55880,-3.03755
9.40000,-1.56706,-3.04533
9.45000,-1.57546,-3.05197
9.50000,-1.58360,-3.05950
9.55000,-1.59200,-3.06686
9.60000,-1.60040,-3.07432
9.65000,-1.60853,-3.08078
9.70000,-1.61706,-3.08875
9.75000,-1.62520,-3.09565
9.80000,-1.63346,-3.10287
9.85000,-1.64200,-3.11023
9.90000,-1.65040,-3.11867
9.95000,-1.65853,-3.12401
10.00000,-1.66693,-3.13100
10.05000,-1.67560,-3.13974
10.10000,-1.68373,-3.14681
10.15000,-1.69200,-3.15215
10.20000,-1.70053,-3.16035
10.25000,-1.70880,-3.16671
10.30000,-1.71693,-3.17370
10.35000,-1.72533,-3.18040
10.40000,-1.73360,-3.18683
10.45000,-1.74186,-3.19385
10.50000,-1.75013,-3.20041
10.55000,-1.75840,-3.20610
10.60000,-1.76693,-3.21287
10.65000,-1.77520,-3.21931
10.70000,-1.78333,-3.22710
10.75000,-1.79186,-3.23206
10.80000,-1.80026,-3.23961
10.85000,-1.80840,-3.24472
10.90000,-1.81693,-3.25218
10.95000,-1.82546,-3.25806
11.00000,-1.83346,-3.26663
11.05000,-1.84173,-3.26979
11.10000,-1.85026,-3.27694
11.15000,-1.85853,-3.28177
11.20000,-1.86666,-3.28896
11.25000,-1.87506,-3.29385
11.30000,-1.88346,-3.30063
11.35000,-1.89160,-3.30508
11.40000,-1.90000,-3.31261
11.45000,-1.90840,-3.31759
11.50000,-1.91693,-3.32488
11.55000,-1.92533,-3.33039
11.60000,-1.93346,-3.33670
11.65000,-1.94186,-3.34132
11.70000,-1.95040,-3.34910
11.75000,-1.95853,-3.35493
11.80000,-1.96680,-3.35959
11.85000,-1.97546,-3.36629
11.90000,-1.98360,-3.37192
11.95000,-1.99173,-3.37738
12.00000,-2.00026,-3.38197
12.05000,-2.00840,-3.38833
12.10000,-2.01653,-3.39300
12.15000,-2.02506,-3.39838
12.20000,-2.03373,-3.40404
12.25000,-2.04200,-3.41044
12.30000,-2.05026,-3.41563
12.35000,-2.05879,-3.42142
12.40000,-2.06706,-3.42553
12.45000,-2.07533,-3.43086
12.50000,-2.08373,-3.43626
12.55000,-2.09213,-3.44056
12.60000,-2.10039,-3.44617
12.65000,-2.10866,-3.45162
12.70000,-2.11693,-3.45542
12.75000,-2.12533,-3.46160
12.80000,-2.13359,-3.46615
12.85000,-2.14173,-3.47112
12.90000,-2.15026,-3.47671
12.95000,-2.15853,-3.48245
13.00000,-2.16666,-3.48706
13.05000,-2.17519,-3.49179
13.10000,-2.18373,-3.49824
13.15000,-2.19186,-3.50230
13.20000,-2.20026,-3.50738
13.25000,-2.20879,-3.51301
13.30000,-2.21693,-3.51802
13.35000,-2.22533,-3.52301
13.40000,-2.23373,-3.52782
13.45000,-2.24186,-3.53381
13.50000,-2.25013,-3.53686
13.55000,-2.25839,-3.54284
13.60000,-2.26679,-3.54668
13.65000,-2.27519,-3.55282
13.70000,-2.28333,-3.55729
13.75000,-2.29159,-3.56254
13.80000,-2.30026,-3.56657
13.85000,-2.30853,-3.57330
13.90000,-2.31666,-3.57733
13.95000,-2.32533,-3.58228
14.00000,-2.33373,-3.58764
14.05000,-2.34186,-3.59236
14.10000,-2.35026,-3.59593
14.15000,-2.35893,-3.60150
14.20000,-2.36693,-3.60585
14.25000,-2.37519,-3.61045
14.30000,-2.38359,-3.61450
14.35000,-2.39186,-3.61922
14.40000,-2.39999,-3.62373
14.45000,-2.40853,-3.62750
14.50000,-2.41693,-3.63358
14.55000,-2.42506,-3.63706
14.60000,-2.43333,-3.64267
14.65000,-2.44173,-3.64613
14.70000,-2.45026,-3.65148
14.75000,-2.45866,-3.65588
14.80000,-2.46679,-3.66072
14.85000,-2.47533,-3.66499
14.90000,-2.48373,-3.66958
14.95000,-2.49199,-3.67450
15.00000,-2.50026,-3.67840
15.05000,-2.50879,-3.68188
15.10000,-2.51693,-3.68749
15.15000,-2.52506,-3.68938
15.20000,-2.53359,-3.69498
15.25000,-2.54186,-3.69802
15.30000,-2.54986,-3.70326
15.35000,-2.55839,-3.70626
15.40000,-2.56693,-3.71211
15.45000,-2.57506,-3.71507
15.50000,-2.58346,-3.72009
15.55000,-2.59199,-3.72374
15.60000,-2.60039,-3.72862
15.65000,-2.60866,-3.73246
15.70000,-2.61693,-3.73713
15.75000,-2.62533,-3.73995
15.80000,-2.63373,-3.74460
15.85000,-2.64213,-3.74798
15.90000,-2.65026,-3.75197
15.95000,-2.65866,-3.75496
16.00000,-2.66679,-3.75885
16.05000,-2.67493,-3.76160
16.10000,-2.68346,-3.76514
16.15000,-2.69173,-3.76940
16.20000,-2.69999,-3.77263
16.25000,-2.70866,-3.77716
16.30000,-2.71719,-3.78139
16.35000,-2.72533,-3.78504
16.40000,-2.73373,-3.78800
16.45000,-2.74226,-3.79277
16.50000,-2.75039,-3.79562
16.55000,-2.75866,-3.79881
16.60000,-2.76706,-3.80273
16.65000,-2.77533,-3.80606
16.70000,-2.78373,-3.80913
16.75000,-2.79199,-3.81165
16.80000,-2.80026,-3.81477
16.85000,-2.80866,-3.81762
16.90000,-2.81679,-3.82099
16.95000,-2.82506,-3.82360
17.00000,-2.83359,-3.82754
17.05000,-2.84186,-3.83114
17.10000,-2.85013,-3.83425
17.15000,-2.85866,-3.83704
17.20000,-2.86719,-3.84203
17.25000,-2.87519,-3.84437
17.30000,-2.88359,-3.84723
17.35000,-2.89213,-3.85062
17.40000,-2.90026,-3.85367
17.45000,-2.90853,-3.85616
17.50000,-2.91693,-3.85946
17.55000,-2.92519,-3.86206
17.60000,-2.93333,-3.86489
17.65000,-2.94173,-3.86786
17.70000,-2.95013,-3.87124
17.75000,-2.95839,-3.87316
17.80000,-2.96679,-3.87606
17.85000,-2.97506,-3.88035
17.90000,-2.98359,-3.88204
17.95000,-2.99186,-3.88695
18.00000,-3.00013,-3.88869
18.05000,-3.00853,-3.89071
18.10000,-3.01706,-3.89538
18.15000,-3.02519,-3.89769
18.20000,-3.03359,-3.89942
18.25000,-3.04213,-3.90283
18.30000,-3.05026,-3.90561
18.35000,-3.05826,-3.90718
18.40000,-3.06693,-3.91097
18.45000,-3.07533,-3.91263
18.50000,-3.08333,-3.91605
18.55000,-3.09173,-3.91707
18.60000,-3.10039,-3.92032
18.65000,-3.10853,-3.92244
18.70000,-3.11679,-3.92463
18.75000,-3.12533,-3.92694
18.80000,-3.13373,-3.92978
18.85000,-3.14199,-3.93135
18.90000,-3.15039,-3.93366
18.95000,-3.15866,-3.93590
19.00000,-3.16706,-3.93697
19.05000,-3.17533,-3.94056
19.10000,-3.18346,-3.94085
19.15000,-3.19199,-3.94362
19.20000,-3.20026,-3.94589
19.25000,-3.20839,-3.94712
19.30000,-3.21693,-3.94875
19.35000,-3.22519,-3.95156
19.40000,-3.23333,-3.95236
19.45000,-3.24199,-3.95552
19.50000,-3.25053,-3.95693
19.55000,-3.25853,-3.95929
19.60000,-3.26693,-3.96038
19.65000,-3.27559,-3.96244
19.70000,-3.28359,-3.96322
19.75000,-3.29186,-3.96302
19.80000,-3.30039,-3.96370
19.85000,-3.30866,-3.96376
19.90000,-3.31693,-3.96383
19.95000,-3.32519,-3.96380
20.00000,-3.33346,-3.96433
20.05000,-3.34186,-3.96552
20.10000,-3.34999,-3.96839
20.15000,-3.35826,-3.96901
20.20000,-3.36693,-3.97131
20.25000,-3.37533,-3.97360
20.30000,-3.38346,-3.97583
20.35000,-3.39213,-3.97737
20.40000,-3.40053,-3.98005
20.45000,-3.40852,-3.98108
20.50000,-3.41692,-3.98267
20.55000,-3.42559,-3.98401
20.60000,-3.43359,-3.98650
20.65000,-3.44186,-3.98625
20.70000,-3.45026,-3.98921
20.75000,-3.45852,-3.98937
20.80000,-3.46666,-3.99209
20.85000,-3.47506,-3.99230
20.90000,-3.48346,-3.99487
20.95000,-3.49159,-3.99533
21.00000,-3.49999,-3.99733
21.05000,-3.50839,-3.99903
21.10000,-3.51692,-4.00071
21.15000,-3.52532,-4.00260
21.20000,-3.53346,-4.00341
21.25000,-3.54199,-4.00402
21.30000,-3.55039,-4.00606
21.35000,-3.55852,-4.00711
21.40000,-3.56692,-4.00778
21.45000,-3.57546,-4.00935
21.50000,-3.58346,-4.01115
21.55000,-3.59159,-4.01150
21.60000,-3.60012,-4.01245
21.65000,-3.60852,-4.01494
21.70000,-3.61666,-4.01438
21.75000,-3.62506,-4.01590
21.80000,-3.63359,-4.01601
21.85000,-3.64159,-4.01796
21.90000,-3.65012,-4.01738
21.95000,-3.65852,-4.02044
22.00000,-3.66679,-4.01989
22.05000,-3.67506,-4.02193
22.10000,-3.68359,-4.02267
22.15000,-3.69199,-4.02345
22.20000,-3.70039,-4.02465
22.25000,-3.70866,-4.02605
22.30000,-3.71692,-4.02560
22.35000,-3.72546,-4.02765
22.40000,-3.73359,-4.02778
22.45000,-3.74186,-4.02901
22.50000,-3.75039,-4.02901
22.55000,-3.75866,-4.03077
22.60000,-3.76679,-4.03094
22.65000,-3.77532,-4.03209
22.70000,-3.78386,-4.03286
22.75000,-3.79199,-4.03486
22.80000,-3.80026,-4.03413
22.85000,-3.80892,-4.03546
22.90000,-3.81706,-4.03645
22.95000,-3.82546,-4.03689
23.00000,-3.83386,-4.03745
23.05000,-3.84199,-4.03763
23.10000,-3.85026,-4.03704
23.15000,-3.85852,-4.03874
23.20000,-3.86692,-4.03719
23.25000,-3.87532,-4.03876
23.30000,-3.88359,-4.03717
23.35000,-3.89172,-4.03827
23.40000,-3.90039,-4.03734
23.45000,-3.90866,-4.03858
23.50000,-3.91666,-4.03703
23.55000,-3.92519,-4.03779
23.60000,-3.93372,-4.03697
23.65000,-3.94172,-4.03560
23.70000,-3.95026,-4.03306
23.75000,-3.95879,-4.03284
23.80000,-3.96692,-4.03128
23.85000,-3.97519,-4.03106
23.90000,-3.98359,-4.02908
23.95000,-3.99186,-4.02922
24.00000,-3.99999,-4.02880
24.05000,-4.00839,-4.02816
24.10000,-4.01652,-4.02723
24.15000,-4.02492,-4.02820
24.20000,-4.03346,-4.02579
24.25000,-4.04172,-4.02774
24.30000,-4.05026,-4.02602
24.35000,-4.05866,-4.02579
24.40000,-4.06679,-4.02553
24.45000,-4.07519,-4.02484
24.50000,-4.08372,-4.02456
24.55000,-4.09186,-4.02528
24.60000,-4.10012,-4.02261
24.65000,-4.10866,-4.02453
24.70000,-4.11679,-4.02332
24.75000,-4.12506,-4.02259
24.80000,-4.13359,-4.02212
24.85000,-4.14186,-4.02133
24.90000,-4.14999,-4.01952
24.95000,-4.15839,-4.01797
25.00000,-4.16692,-4.01811
25.05000,-4.17519,-4.01760
25.10000,-4.18346,-4.01588
25.15000,-4.19199,-4.01539
25.20000,-4.20026,-4.01408
25.25000,-4.20866,-4.01270
25.30000,-4.21706,-4.01270
25.35000,-4.22546,-4.01142
25.40000,-4.23386,-4.01011
25.45000,-4.24199,-4.00885
25.50000,-4.25026,-4.00608
25.55000,-4.25866,-4.00509
25.60000,-4.26692,-4.00436
25.65000,-4.27506,-4.00092
25.70000,-4.28359,-4.00031
25.75000,-4.29199,-3.99794
25.80000,-4.30012,-3.99793
25.85000,-4.30866,-3.99507
25.90000,-4.31719,-3.99762
25.95000,-4.32519,-3.99318
26.00000,-4.33359,-3.99307
26.05000,-4.34226,-3.99067
26.10000,-4.35026,-3.99018
26.15000,-4.35866,-3.98825
26.20000,-4.36706,-3.98764
26.25000,-4.37546,-3.98480
26.30000,-4.38359,-3.98387
26.35000,-4.39186,-3.98315
26.40000,-4.40012,-3.97988
26.45000,-4.40852,-3.97920
26.50000,-4.41692,-3.97812
26.55000,-4.42506,-3.97585
26.60000,-4.43359,-3.97410
26.65000,-4.44186,-3.97336
26.70000,-4.44999,-3.97111
26.75000,-4.45866,-3.96987
26.80000,-4.46719,-3.96734
26.85000,-4.47519,-3.96548
26.90000,-4.48359,-3.96293
26.95000,-4.49212,-3.96105
27.00000,-4.50026,-3.95972
27.05000,-4.50839,-3.95755
27.10000,-4.51692,-3.95412
27.15000,-4.52519,-3.95300
27.20000,-4.53332,-3.94902
27.25000,-4.54172,-3.94789
27.30000,-4.54999,-3.94445
27.35000,-4.55839,-3.94096
27.40000,-4.56666,-3.93831
27.45000,-4.57506,-3.93549
27.50000,-4.58359,-3.93146
27.55000,-4.59199,-3.92994
27.60000,-4.60012,-3.92600
27.65000,-4.60852,-3.92146
27.70000,-4.61706,-3.92095
27.75000,-4.62519,-3.91685
27.80000,-4.63346,-3.91287
27.85000,-4.64199,-3.90936
27.90000,-4.65012,-3.90659
27.95000,-4.65826,-3.90035
28.00000,-4.66692,-3.89918
28.05000,-4.67506,-3.89418
28.10000,-4.68332,-3.89226
28.15000,-4.69172,-3.88596
28.20000,-4.70039,-3.88564
28.25000,-4.70866,-3.87931
28.30000,-4.71706,-3.87848
28.35000,-4.72559,-3.87310
28.40000,-4.73372,-3.86844
28.45000,-4.74199,-3.86281
28.50000,-4.75026,-3.86125
28.55000,-4.75866,-3.85549
28.60000,-4.76706,-3.85193
28.65000,-4.77532,-3.84877
28.70000,-4.78359,-3.84281
28.75000,-4.79212,-3.83806
28.80000,-4.80025,-3.83341
28.85000,-4.80839,-3.82883
28.90000,-4.81692,-3.82223
28.95000,-4.82519,-3.82023
29.00000,-4.83332,-3.81292
29.05000,-4.84185,-3.80911
29.10000,-4.85039,-3.80542
29.15000,-4.85852,-3.80001
29.20000,-4.86692,-3.79493
29.25000,-4.87559,-3.79191
29.30000,-4.88372,-3.78598
29.35000,-4.89199,-3.78160
29.40000,-4.90039,-3.77598
29.45000,-4.90865,-3.77289
29.50000,-4.91692,-3.76664
29.55000,-4.92519,-3.76218
29.60000,-4.93345,-3.75995
29.65000,-4.94185,-3.75516
29.70000,-4.94999,-3.75265
29.75000,-4.95825,-3.74798
29.80000,-4.96692,-3.74672
29.85000,-4.97532,-3.74282
29.90000,-4.98345,-3.74052
29.95000,-4.99185,-3.73708
30.00000,-5.00039,-3.73390
30.05000,-5.00839,-3.73092
30.10000,-5.01679,-3.72796
30.15000,-5.02545,-3.72473
30.20000,-5.03359,-3.72375
30.25000,-5.04172,-3.71887
30.30000,-5.05025,-3.71610
30.35000,-5.05852,-3.71298
30.40000,-5.06679,-3.71054
30.45000,-5.07505,-3.70692
30.50000,-5.08345,-3.70533
30.55000,-5.09172,-3.70152
30.60000,-5.09999,-3.70024
30.65000,-5.10839,-3.69724
30.70000,-5.11692,-3.70050
30.75000,-5.12532,-3.68972
30.80000,-5.13345,-3.69687
30.85000,-5.14199,-3.68756
30.90000,-5.15039,-3.68810
30.95000,-5.15852,-3.68583
31.00000,-5.16679,-3.68403
31.05000,-5.17545,-3.67896
31.10000,-5.18359,-3.67982
31.15000,-5.19159,-3.67634
31.20000,-5.20012,-3.67529
31.25000,-5.20852,-3.67118
31.30000,-5.21679,-3.67136
31.35000,-5.22519,-3.66612
31.40000,-5.23359,-3.66746
31.45000,-5.24172,-3.66412
31.50000,-5.25012,-3.66505
31.55000,-5.25865,-3.66266
31.60000,-5.26705,-3.66053
31.65000,-5.27532,-3.66052
31.70000,-5.28372,-3.65894
31.75000,-5.29212,-3.65805
31.80000,-5.30039,-3.65742
31.85000,-5.30865,-3.65453
31.90000,-5.31692,-3.65142
31.95000,-5.32545,-3.64839
32.00000,-5.33359,-3.64790
32.05000,-5.34172,-3.64494
32.10000,-5.35012,-3.64272
32.15000,-5.35865,-3.64095
32.20000,-5.36679,-3.64090
32.25000,-5.37532,-3.63749
32.30000,-5.38372,-3.63636
32.35000,-5.39199,-3.63633
32.40000,-5.40025,-3.63307
32.45000,-5.40892,-3.63339
32.50000,-5.41705,-3.63118
32.55000,-5.42532,-3.62909
32.60000,-5.43372,-3.62813
32.65000,-5.44199,-3.62761
32.70000,-5.45025,-3.62473
32.75000,-5.45865,-3.62356
32.80000,-5.46692,-3.62426
32.85000,-5.47532,-3.62365
32.90000,-5.48345,-3.62356
32.95000,-5.49159,-3.62211
33.00000,-5.50025,-3.62150
33.05000,-5.50852,-3.62356
33.10000,-5.51665,-3.62210
33.15000,-5.52519,-3.62475
33.20000,-5.53372,-3.62296
33.25000,-5.54185,-3.62511
33.30000,-5.55025,-3.62298
33.35000,-5.55892,-3.62645
33.40000,-5.56692,-3.62440
33.45000,-5.57505,-3.62658
33.50000,-5.58359,-3.62349
33.55000,-5.59185,-3.62661
33.60000,-5.60012,-3.62686
33.65000,-5.60839,-3.62682
33.70000,-5.61679,-3.62588
33.75000,-5.62505,-3.62675
33.80000,-5.63345,-3.62711
33.85000,-5.64185,-3.62942
33.90000,-5.65025,-3.62848
33.95000,-5.65865,-3.62946
34.00000,-5.66679,-3.62841
34.05000,-5.67532,-3.62840
34.10000,-5.68372,-3.62945
34.15000,-5.69172,-3.62965
34.20000,-5.70012,-3.62904
34.25000,-5.70879,-3.62959
34.30000,-5.71679,-3.62919
34.35000,-5.72505,-3.62799
34.40000,-5.73359,-3.62896
34.45000,-5.74185,-3.62942
34.50000,-5.74999,-3.62938
34.55000,-5.75839,-3.63039
34.60000,-5.76692,-3.62926
34.65000,-5.77505,-3.63051
34.70000,-5.78345,-3.63047
34.75000,-5.79199,-3.63466
34.80000,-5.80039,-3.63316
34.85000,-5.80879,-3.63559
34.90000,-5.81719,-3.63468
34.95000,-5.82545,-3.63745
35.00000,-5.83372,-3.63718
35.05000,-5.84199,-3.64122
35.10000,-5.85025,-3.63974
35.15000,-5.85852,-3.64282
35.20000,-5.86679,-3.64173
35.25000,-5.87505,-3.64316
35.30000,-5.88372,-3.64373
35.35000,-5.89199,-3.64789
35.40000,-5.90012,-3.64586
35.45000,-5.90865,-3.64797
35.50000,-5.91705,-3.64605
35.55000,-5.92519,-3.64831
35.60000,-5.93359,-3.64950
35.65000,-5.94212,-3.65175
35.70000,-5.95025,-3.65131
35.75000,-5.95865,-3.65202
35.80000,-5.96705,-3.65299
35.85000,-5.97532,-3.65439
35.90000,-5.98345,-3.65614
35.95000,-5.99172,-3.65668
36.00000,-6.00012,-3.65684
36.05000,-6.00852,-3.65727
36.10000,-6.01679,-3.65960
36.15000,-6.02505,-3.66115
36.20000,-6.03372,-3.66130
36.25000,-6.04199,-3.66236
36.30000,-6.05012,-3.66174
36.35000,-6.05879,-3.66293
36.40000,-6.06719,-3.66509
36.45000,-6.07519,-3.66658
36.50000,-6.08359,-3.66617
36.55000,-6.09212,-3.66772
36.60000,-6.10012,-3.66852
36.65000,-6.10852,-3.66857
36.70000,-6.11692,-3.67121
36.75000,-6.12519,-3.67171
36.80000,-6.13332,-3.67267
36.85000,-6.14172,-3.67213
36.90000,-6.14998,-3.67338
36.95000,-6.15825,-3.67479
37.00000,-6.16665,-3.67534
37.05000,-6.17505,-3.67709
37.10000,-6.18359,-3.67729
37.15000,-6.19198,-3.67882
37.20000,-6.20012,-3.67890
37.25000,-6.20865,-3.67917
37.30000,-6.21705,-3.67977
37.35000,-6.22519,-3.68069
37.40000,-6.23345,-3.68001
37.45000,-6.24212,-3.68039
37.50000,-6.25012,-3.68216
37.55000,-6.25825,-3.68072
37.60000,-6.26692,-3.68295
37.65000,-6.27518,-3.68340
37.70000,-6.28332,-3.68394
37.75000,-6.29172,-3.68395
37.80000,-6.30025,-3.68529
37.85000,-6.30852,-3.68555
37.90000,-6.31678,-3.68583
37.95000,-6.32532,-3.68705
38.00000,-6.33358,-3.68698
38.05000,-6.34198,-3.68792
38.10000,-6.35025,-3.68828
38.15000,-6.35865,-3.68836
38.20000,-6.36705,-3.68823
38.25000,-6.37532,-3.68883
38.30000,-6.38358,-3.68926
38.35000,-6.39198,-3.68928
38.40000,-6.40025,-3.69124
38.45000,-6.40838,-3.68999
38.50000,-6.41692,-3.69104
38.55000,-6.42518,-3.69133
38.60000,-6.43345,-3.69187
38.65000,-6.44212,-3.69330
38.70000,-6.45052,-3.69435
38.75000,-6.45865,-3.69530
38.80000,-6.46692,-3.69546
38.85000,-6.47558,-3.69707
38.90000,-6.48372,-3.69815
38.95000,-6.49198,-3.69817
39.00000,-6.50038,-3.70071
39.05000,-6.50878,-3.69976
39.10000,-6.51692,-3.70159
39.15000,-6.52532,-3.70132
39.20000,-6.53372,-3.70236
39.25000,-6.54198,-3.70239
39.30000,-6.55012,-3.70390
39.35000,-6.55838,-3.70397
39.40000,-6.56705,-3.70523
39.45000,-6.57532,-3.70726
39.50000,-6.58345,-3.70708
39.55000,-6.59185,-3.70869
39.60000,-6.60025,-3.70886
39.65000,-6.60838,-3.71052
39.70000,-6.61692,-3.71113
39.75000,-6.62545,-3.71183
39.80000,-6.63358,-3.71384
39.85000,-6.64172,-3.71315
39.90000,-6.65012,-3.71445
39.95000,-6.65825,-3.71502
40.00000,-6.66652,-3.71573
40.05000,-6.67505,-3.71743
40.10000,-6.68345,-3.71835
40.15000,-6.69185,-3.71932
40.20000,-6.70012,-3.72003
40.25000,-6.70852,-3.72162
40.30000,-6.71705,-3.72224
40.35000,-6.72532,-3.72346
40.40000,-6.73345,-3.72436
40.45000,-6.74198,-3.72356
40.50000,-6.75038,-3.72553
40.55000,-6.75852,-3.72509
40.60000,-6.76692,-3.72616
40.65000,-6.77545,-3.72601
40.70000,-6.78358,-3.72751
40.75000,-6.79172,-3.72556
40.80000,-6.80025,-3.72652
40.85000,-6.80852,-3.72646
40.90000,-6.81665,-3.72697
40.95000,-6.82505,-3.72634
41.00000,-6.83372,-3.72766
41.05000,-6.84185,-3.72736
41.10000,-6.85025,-3.72727
41.15000,-6.85878,-3.72839
41.20000,-6.86705,-3.72969
41.25000,-6.87545,-3.73066
41.30000,-6.88372,-3.73186
41.35000,-6.89212,-3.72979
41.40000,-6.90038,-3.73093
41.45000,-6.90865,-3.73016
41.50000,-6.91692,-3.72984
41.55000,-6.92532,-3.72925
41.60000,-6.93358,-3.73036
41.65000,-6.94172,-3.72854
41.70000,-6.95025,-3.72915
41.75000,-6.95852,-3.72875
41.80000,-6.96665,-3.72769
41.85000,-6.97518,-3.72767
41.90000,-6.98372,-3.72701
41.95000,-6.99185,-3.72642
42.00000,-7.00025,-3.72598
42.05000,-7.00892,-3.72545
42.10000,-7.01705,-3.72566
42.15000,-7.02545,-3.72280
42.20000,-7.03372,-3.72377
42.25000,-7.04198,-3.72123
42.30000,-7.05025,-3.71894
42.35000,-7.05852,-3.71861
42.40000,-7.06692,-3.71652
42.45000,-7.07532,-3.71538
42.50000,-7.08358,-3.71416
42.55000,-7.09172,-3.71582
42.60000,-7.10025,-3.70913
42.65000,-7.10865,-3.71179
42.70000,-7.11678,-3.70994
42.75000,-7.12532,-3.70651
42.80000,-7.13372,-3.70862
42.85000,-7.14185,-3.70486
42.90000,-7.15012,-3.70411
42.95000,-7.15878,-3.70339
43.00000,-7.16692,-3.69936
43.05000,-7.17518,-3.69913
43.10000,-7.18358,-3.69565
43.15000,-7.19185,-3.69481
43.20000,-7.20012,-3.69279
43.25000,-7.20838,-3.69014
43.30000,-7.21678,-3.68482
43.35000,-7.22505,-3.68365
43.40000,-7.23332,-3.67557
43.45000,-7.24172,-3.67744
43.50000,-7.25025,-3.66988
43.55000,-7.25852,-3.66636
43.60000,-7.26665,-3.66273
43.65000,-7.27532,-3.65835
43.70000,-7.28372,-3.65594
43.75000,-7.29198,-3.65370
43.80000,-7.30025,-3.65028
43.85000,-7.30878,-3.64861
43.90000,-7.31678,-3.64404
43.95000,-7.32492,-3.64582
44.00000,-7.33358,-3.63840
44.05000,-7.34172,-3.64487
44.10000,-7.34998,-3.63614
44.15000,-7.35838,-3.64137
44.20000,-7.36692,-3.63380
44.25000,-7.37518,-3.63625
44.30000,-7.38358,-3.63104
44.35000,-7.39212,-3.63195
44.40000,-7.40038,-3.62857
44.45000,-7.40865,-3.62748
44.50000,-7.41705,-3.62210
44.55000,-7.42545,-3.62359
44.60000,-7.43358,-3.61681
44.65000,-7.44198,-3.61845
44.70000,-7.45011,-3.61258
44.75000,-7.45865,-3.61537
44.80000,-7.46692,-3.60799
44.85000,-7.47518,-3.61023
44.90000,-7.48358,-3.60224
44.95000,-7.49185,-3.60709
45.00000,-7.49998,-3.60026
45.05000,-7.50865,-3.60304
45.10000,-7.51705,-3.59781
45.15000,-7.52518,-3.60087
45.20000,-7.53358,-3.59377
45.25000,-7.54225,-3.59963
45.30000,-7.55038,-3.59225
45.35000,-7.55865,-3.59458
45.40000,-7.56705,-3.59097
45.45000,-7.57531,-3.59081
45.50000,-7.58372,-3.59000
45.55000,-7.59198,-3.58839
45.60000,-7.60025,-3.58698
45.65000,-7.60865,-3.58438
45.70000,-7.61691,-3.58524
45.75000,-7.62505,-3.58288
45.80000,-7.63371,-3.58419
45.85000,-7.64198,-3.58324
45.90000,-7.65011,-3.58329
45.95000,-7.65865,-3.58146
46.00000,-7.66705,-3.58297
46.05000,-7.67518,-3.58222
46.10000,-7.68358,-3.58400
46.15000,-7.69211,-3.58141
46.20000,-7.70025,-3.58331
46.25000,-7.70851,-3.57996
46.30000,-7.71705,-3.58361
46.35000,-7.72518,-3.58149
46.40000,-7.73345,-3.58299
46.45000,-7.74171,-3.58232
46.50000,-7.75011,-3.58363
46.55000,-7.75838,-3.58398
46.60000,-7.76678,-3.58478
46.65000,-7.77505,-3.58566
46.70000,-7.78358,-3.58627
46.75000,-7.79198,-3.58714
46.80000,-7.80025,-3.58819
46.85000,-7.80865,-3.58783
46.90000,-7.81705,-3.58884
46.95000,-7.82518,-3.59031
47.00000,-7.83358,-3.59037
47.05000,-7.84225,-3.59225
47.10000,-7.85025,-3.59240
47.15000,-7.85825,-3.59313
47.20000,-7.86691,-3.59386
47.25000,-7.87518,-3.59657
47.30000,-7.88331,-3.59571
47.35000,-7.89171,-3.59705
47.40000,-7.90038,-3.59871
47.45000,-7.90851,-3.60042
47.50000,-7.91678,-3.60009
47.55000,-7.92518,-3.60291
47.60000,-7.93345,-3.60138
47.65000,-7.94171,-3.60465
47.70000,-7.95025,-3.60532
47.75000,-7.95865,-3.60712
47.80000,-7.96691,-3.60841
47.85000,-7.97518,-3.60982
47.90000,-7.98331,-3.60940
47.95000,-7.99185,-3.61140
48.00000,-8.00011,-3.61377
48.05000,-8.00838,-3.61535
48.10000,-8.01705,-3.61616
48.15000,-8.02531,-3.61989
48.20000,-8.03345,-3.61909
48.25000,-8.04198,-3.62221
48.30000,-8.05051,-3.62353
48.35000,-8.05865,-3.62584
48.40000,-8.06691,-3.62707
48.45000,-8.07558,-3.62885
48.50000,-8.08371,-3.63071
48.55000,-8.09198,-3.63243
48.60000,-8.10051,-3.63468
48.65000,-8.10878,-3.63559
48.70000,-8.11691,-3.63779
48.75000,-8.12531,-3.63888
48.80000,-8.13358,-3.64098
48.85000,-8.14198,-3.64280
48.90000,-8.15011,-3.64378
48.95000,-8.15838,-3.64585
49.00000,-8.16705,-3.64745
49.05000,-8.17531,-3.65122
49.10000,-8.18345,-3.65206
49.15000,-8.19198,-3.65318
49.20000,-8.20051,-3.65584
49.25000,-8.20851,-3.65742
49.30000,-8.21691,-3.65809
49.35000,-8.22545,-3.66048
49.40000,-8.23358,-3.66274
49.45000,-8.24185,-3.66330
49.50000,-8.25025,-3.66506
49.55000,-8.25838,-3.66649
49.60000,-8.26665,-3.66782
49.65000,-8.27505,-3.66975
49.70000,-8.28345,-3.67094
49.75000,-8.29171,-3.67393
49.80000,-8.30011,-3.67367
49.85000,-8.30838,-3.67725
49.90000,-8.31691,-3.67717
49.95000,-8.32531,-3.68003
50.00000,-8.33345,-3.68055
50.05000,-8.34198,-3.68194
50.10000,-8.35025,-3.68265
50.15000,-8.35838,-3.68426
50.20000,-8.36678,-3.68475
50.25000,-8.37545,-3.68704
50.30000,-8.38345,-3.68777
50.35000,-8.39158,-3.68823
50.40000,-8.40025,-3.68935
50.45000,-8.40851,-3.69128
50.50000,-8.41665,-3.69134
50.55000,-8.42505,-3.69335
50.60000,-8.43358,-3.69296
50.65000,-8.44185,-3.69497
50.70000,-8.45025,-3.69588
50.75000,-8.45878,-3.69681
50.80000,-8.46705,-3.69811
50.85000,-8.47531,-3.69824
50.90000,-8.48371,-3.70029
50.95000,-8.49211,-3.69970
51.00000,-8.50038,-3.70184
51.05000,-8.50865,-3.70124
51.10000,-8.51691,-3.70079
51.15000,-8.52531,-3.70196
51.20000,-8.53358,-3.70365
51.25000,-8.54171,-3.70442
51.30000,-8.55025,-3.70629
51.35000,-8.55865,-3.70817
51.40000,-8.56678,-3.70976
51.45000,-8.57531,-3.71051
51.50000,-8.58385,-3.71391
51.55000,-8.59185,-3.71390
51.60000,-8.60025,-3.71579
51.65000,-8.60878,-3.71681
51.70000,-8.61691,-3.72115
51.75000,-8.62531,-3.71997
51.80000,-8.63371,-3.72461
51.85000,-8.64198,-3.72376
51.90000,-8.65011,-3.72641
51.95000,-8.65838,-3.72717
52.00000,-8.66678,-3.72879
52.05000,-8.67531,-3.73056
52.10000,-8.68358,-3.73318
52.15000,-8.69171,-3.73300
52.20000,-8.70025,-3.73574
52.25000,-8.70851,-3.73665
52.30000,-8.71678,-3.73891
52.35000,-8.72531,-3.73825
52.40000,-8.73371,-3.74164
52.45000,-8.74185,-3.74112
52.50000,-8.75011,-3.74385
52.55000,-8.75878,-3.74345
52.60000,-8.76691,-3.74669
52.65000,-8.77505,-3.74578
52.70000,-8.78358,-3.74714
52.75000,-8.79185,-3.74697
52.80000,-8.79998,-3.74788
52.85000,-8.80838,-3.74926
52.90000,-8.81678,-3.75088
52.95000,-8.82505,-3.75012
53.00000,-8.83331,-3.75306
53.05000,-8.84171,-3.75335
53.10000,-8.85024,-3.75408
53.15000,-8.85865,-3.75746
53.20000,-8.86678,-3.75790
53.25000,-8.87531,-3.75832
53.30000,-8.88371,-3.76106
53.35000,-8.89185,-3.76195
53.40000,-8.90011,-3.76388
53.45000,-8.90878,-3.76456
53.50000,-8.91691,-3.76500
53.55000,-8.92504,-3.76688
53.60000,-8.93358,-3.76653
53.65000,-8.94185,-3.76773
53.70000,-8.94998,-3.77300
53.75000,-8.95838,-3.76978
53.80000,-8.96691,-3.77359
53.85000,-8.97518,-3.77499
53.90000,-8.98345,-3.77780
53.95000,-8.99198,-3.77799
54.00000,-9.00024,-3.78236
54.05000,-9.00865,-3.78146
54.10000,-9.01704,-3.78448
54.15000,-9.02545,-3.78439
54.20000,-9.03371,-3.79085
54.25000,-9.04198,-3.78712
54.30000,-9.05024,-3.79299
54.35000,-9.05878,-3.78935
54.40000,-9.06691,-3.79697
54.45000,-9.07504,-3.79336
54.50000,-9.08371,-3.79833
54.55000,-9.09184,-3.79842
54.60000,-9.10011,-3.79994
54.65000,-9.10864,-3.80113
54.70000,-9.11718,-3.80432
54.75000,-9.12531,-3.80294
54.80000,-9.13358,-3.80567
54.85000,-9.14224,-3.80543
54.90000,-9.15024,-3.80948
54.95000,-9.15864,-3.80911
55.00000,-9.16704,-3.81158
55.05000,-9.17544,-3.81190
55.10000,-9.18371,-3.81583
55.15000,-9.19198,-3.81653
55.20000,-9.20024,-3.81917
55.25000,-9.20864,-3.82081
55.30000,-9.21678,-3.82206
55.35000,-9.22491,-3.82357
55.40000,-9.23358,-3.82639
55.45000,-9.24198,-3.82924
55.50000,-9.25011,-3.83144
55.55000,-9.25864,-3.83216
55.60000,-9.26704,-3.83520
55.65000,-9.27518,-3.83693
55.70000,-9.28358,-3.83874
55.75000,-9.29224,-3.84105
55.80000,-9.30024,-3.84392
55.85000,-9.30838,-3.84478
55.90000,-9.31678,-3.84679
55.95000,-9.32491,-3.84878
56.00000,-9.33331,-3.85065
56.05000,-9.34184,-3.85387
56.10000,-9.35011,-3.85560
56.15000,-9.35838,-3.85715
56.20000,-9.36664,-3.86013
56.25000,-9.37504,-3.86209
56.30000,-9.38358,-3.86441
56.35000,-9.39198,-3.86728
56.40000,-9.40011,-3.86876
56.45000,-9.40864,-3.87071
56.50000,-9.41718,-3.87371
56.55000,-9.42518,-3.87564
56.60000,-9.43344,-3.87634
56.65000,-9.44211,-3.87752
56.70000,-9.45011,-3.87990
56.75000,-9.45838,-3.88053
56.80000,-9.46691,-3.88185
56.85000,-9.47531,-3.88523
56.90000,-9.48344,-3.88627
56.95000,-9.49171,-3.88709
57.00000,-9.50024,-3.88872
57.05000,-9.50864,-3.89209
57.10000,-9.51691,-3.89302
57.15000,-9.52544,-3.89687
57.20000,-9.53371,-3.89679
57.25000,-9.54198,-3.89855
57.30000,-9.55038,-3.90050
57.35000,-9.55878,-3.90037
57.40000,-9.56704,-3.90453
57.45000,-9.57531,-3.90561
57.50000,-9.58358,-3.90488
57.55000,-9.59211,-3.90700
57.60000,-9.60024,-3.90940
57.65000,-9.60838,-3.90911
57.70000,-9.61691,-3.91073
57.75000,-9.62518,-3.91313
57.80000,-9.63331,-3.91346
57.85000,-9.64184,-3.91673
57.90000,-9.65051,-3.91757
57.95000,-9.65864,-3.92122
58.00000,-9.66691,-3.92118
58.05000,-9.67544,-3.92275
58.10000,-9.68371,-3.92483
58.15000,-9.69198,-3.92607
58.20000,-9.70038,-3.92807
58.25000,-9.70878,-3.92705
58.30000,-9.71704,-3.93461
58.35000,-9.72531,-3.92964
58.40000,-9.73358,-3.93521
58.45000,-9.74198,-3.93633
58.50000,-9.75024,-3.93704
58.55000,-9.75838,-3.93768
58.60000,-9.76691,-3.93828
58.65000,-9.77531,-3.94198
58.70000,-9.78344,-3.94289
58.75000,-9.79198,-3.94595
58.80000,-9.80038,-3.94564
58.85000,-9.80851,-3.94795
58.90000,-9.81678,-3.94810
58.95000,-9.82544,-3.94899
59.00000,-9.83358,-3.95275
59.05000,-9.84171,-3.95313
59.10000,-9.85024,-3.95413
59.15000,-9.85851,-3.95673
59.20000,-9.86664,-3.95647
59.25000,-9.87504,-3.95868
59.30000,-9.88331,-3.95937
59.35000,-9.89171,-3.96099
59.40000,-9.89998,-3.96169
59.45000,-9.90838,-3.96607
59.50000,-9.91704,-3.96511
59.55000,-9.92531,-3.96977
59.60000,-9.93344,-3.96970
59.65000,-9.94184,-3.97211
59.70000,-9.95038,-3.97414
59.75000,-9.95838,-3.97800
59.80000,-9.96664,-3.97698
59.85000,-9.97531,-3.98286
59.90000,-9.98344,-3.98150
59.95000,-9.99158,-3.98595
60.00000,-10.00024,-3.98532
60.05000,-10.00864,-3.99120
60.10000,-10.01678,-3.99095
60.15000,-10.02518,-3.99471
60.20000,-10.03371,-3.99466
60.25000,-10.04184,-3.99886
60.30000,-10.05024,-3.99934
60.35000,-10.05878,-4.00283
60.40000,-10.06704,-4.00403
60.45000,-10.07531,-4.00521
60.50000,-10.08371,-4.00714
60.55000,-10.09211,-4.00753
60.60000,-10.10038,-4.01049
60.65000,-10.10864,-4.01178
60.70000,-10.11678,-4.01246
60.75000,-10.12531,-4.01307
60.80000,-10.13358,-4.01529
60.85000,-10.14171,-4.01589
60.90000,-10.15024,-4.01622
60.95000,-10.15851,-4.01870
61.00000,-10.16664,-4.01817
61.05000,-10.17518,-4.02036
61.10000,-10.18384,-4.02274
61.15000,-10.19198,-4.02522
61.20000,-10.20024,-4.02569
61.25000,-10.20878,-4.02731
61.30000,-10.21691,-4.02937
61.35000,-10.22531,-4.03085
61.40000,-10.23371,-4.03307
61.45000,-10.24198,-4.03460
61.50000,-10.25024,-4.03588
61.55000,-10.25851,-4.03757
61.60000,-10.26691,-4.03824
61.65000,-10.27531,-4.04046
61.70000,-10.28358,-4.04211
61.75000,-10.29171,-4.04253
61.80000,-10.30037,-4.04417
61.85000,-10.30851,-4.04538
61.90000,-10.31678,-4.04750
61.95000,-10.32531,-4.04777
62.00000,-10.33371,-4.05107
62.05000,-10.34171,-4.05086
62.10000,-10.35011,-4.05264
62.15000,-10.35878,-4.05359
62.20000,-10.36678,-4.05643
62.25000,-10.37504,-4.05663
62.30000,-10.38358,-4.05836
62.35000,-10.39171,-4.05932
62.40000,-10.40011,-4.06110
62.45000,-10.40837,-4.06191
62.50000,-10.41678,-4.06449
62.55000,-10.42504,-4.06446
62.60000,-10.43331,-4.06747
62.65000,-10.44171,-4.06818
62.70000,-10.45024,-4.07031
62.75000,-10.45864,-4.07170
62.80000,-10.46677,-4.07367
62.85000,-10.47531,-4.07359
62.90000,-10.48371,-4.07513
62.95000,-10.49184,-4.07614
63.00000,-10.50024,-4.07699
63.05000,-10.50877,-4.07794
63.10000,-10.51677,-4.07995
63.15000,-10.52491,-4.07920
63.20000,-10.53357,-4.08102
63.25000,-10.54197,-4.08295
63.30000,-10.54997,-4.08402
63.35000,-10.55824,-4.08360
63.40000,-10.56691,-4.08597
63.45000,-10.57504,-4.08552
63.50000,-10.58344,-4.08666
63.55000,-10.59197,-4.08803
63.60000,-10.60024,-4.08930
63.65000,-10.60864,-4.08937
63.70000,-10.61691,-4.09057
63.75000,-10.62531,-4.08910
63.80000,-10.63357,-4.08887
63.85000,-10.64184,-4.08719
63.90000,-10.64997,-4.08338
63.95000,-10.65864,-4.08036
64.00000,-10.66691,-4.07896
64.05000,-10.67504,-4.07636
64.10001,-10.68371,-4.07525
64.15000,-10.69197,-4.07412
64.20000,-10.70011,-4.07353
64.25000,-10.70851,-4.07150
64.30000,-10.71717,-4.07376
64.35001,-10.72531,-4.07149
64.40000,-10.73357,-4.07246
64.45000,-10.74224,-4.07206
64.50000,-10.75051,-4.07248
64.55000,-10.75877,-4.07215
64.60001,-10.76717,-4.07182
64.65000,-10.77544,-4.07166
64.70000,-10.78357,-4.07124
64.75000,-10.79184,-4.07108
64.80000,-10.80024,-4.07090
64.85001,-10.80864,-4.07178
64.90000,-10.81691,-4.07252
64.95000,-10.82504,-4.07123
65.00000,-10.83371,-4.07261
65.05000,-10.84197,-4.07338
65.10001,-10.85011,-4.07391
65.15000,-10.85864,-4.07247
65.20000,-10.86717,-4.07487
65.25000,-10.87517,-4.07411
65.30000,-10.88344,-4.07358
65.35001,-10.89211,-4.07550
65.40000,-10.90024,-4.07699
65.45000,-10.90851,-4.07715
65.50000,-10.91691,-4.07627
65.55000,-10.92517,-4.07892
65.60001,-10.93344,-4.07851
65.65000,-10.94184,-4.07884
65.70001,-10.95011,-4.07903
65.75000,-10.95851,-4.07902
65.80000,-10.96677,-4.07917
65.85001,-10.97504,-4.07814
65.90000,-10.98357,-4.07810
65.95001,-10.99197,-4.07975
66.00000,-11.00011,-4.07840
66.05000,-11.00864,-4.07892
66.10001,-11.01717,-4.07941
66.15000,-11.02531,-4.08150
66.20001,-11.03357,-4.07945
66.25000,-11.04211,-4.08239
66.30000,-11.05024,-4.08287
66.35001,-11.05851,-4.08517
66.40000,-11.06691,-4.08475
66.45001,-11.07517,-4.08763
66.50000,-11.08331,-4.08844
66.55000,-11.09171,-4.08935
66.60001,-11.10037,-4.09144
66.65000,-11.10864,-4.09338
66.70001,-11.11691,-4.09588
66.75000,-11.12544,-4.09697
66.80000,-11.13371,-4.09794
66.85001,-11.14197,-4.09978
66.90000,-11.15037,-4.10246
66.95001,-11.15877,-4.10208
67.00000,-11.16704,-4.10479
67.05000,-11.17531,-4.10719
67.10001,-11.18357,-4.10689
67.15000,-11.19211,-4.10914
67.20001,-11.20037,-4.11198
67.25000,-11.20837,-4.11264
67.30000,-11.21691,-4.11438
67.35001,-11.22517,-4.11643
67.40000,-11.23331,-4.11901
67.45001,-11.24197,-4.12057
67.50000,-11.25051,-4.12408
67.55000,-11.25851,-4.12534
67.60001,-11.26691,-4.12730
67.65000,-11.27557,-4.12905
67.70001,-11.28371,-4.13066
67.75000,-11.29197,-4.13212
67.80000,-11.30037,-4.13337
67.85001,-11.30851,-4.13329
67.90000,-11.31677,-4.13446
67.95001,-11.32504,-4.13598
68.00000,-11.33357,-4.13773
68.05000,-11.34211,-4.13926
68.10001,-11.35037,-4.14240
68.15000,-11.35851,-4.14368
68.20001,-11.36717,-4.14466
68.25000,-11.37531,-4.14788
68.30000,-11.38344,-4.14877
68.35001,-11.39211,-4.15168
68.40000,-11.40051,-4.15423
68.45001,-11.40851,-4.15772
68.50000,-11.41704,-4.15881
68.55000,-11.42557,-4.16306
68.60001,-11.43371,-4.16447
68.65000,-11.44184,-4.16721
68.70001,-11.45024,-4.16840
68.75000,-11.45851,-4.17247
68.80000,-11.46677,-4.17419
68.85001,-11.47504,-4.17828
68.90000,-11.48344,-4.18066
68.95001,-11.49171,-4.18250
69.00000,-11.50011,-4.18490
69.05000,-11.50850,-4.18782
69.10001,-11.51691,-4.19017
69.15000,-11.52517,-4.19279
69.20001,-11.53344,-4.19550
69.25000,-11.54197,-4.19726
69.30000,-11.55024,-4.20110
69.35001,-11.55850,-4.20331
69.40000,-11.56677,-4.20562
69.45001,-11.57530,-4.20703
69.50000,-11.58357,-4.21125
69.55000,-11.59171,-4.21135
69.60001,-11.60024,-4.21479
69.65000,-11.60864,-4.21700
69.70001,-11.61664,-4.21853
69.75000,-11.62504,-4.21789
69.80000,-11.63371,-4.21973
69.85001,-11.64197,-4.21659
69.90000,-11.65024,-4.21005
69.95001,-11.65891,-3.99765
70.00000,-11.66717,-3.96715
70.05000,-11.67530,-4.01155
70.10001,-11.68371,-4.03248
70.15000,-11.69210,-4.05076
70.20001,-11.70037,-4.06782
70.25000,-11.70864,-4.08167
70.30000,-11.71691,-4.09309
70.35001,-11.72544,-4.10534
70.40000,-11.73357,-4.11587
70.45001,-11.74170,-4.12443
70.50000,-11.75037,-4.13453
70.55000,-11.75864,-4.14333
70.60001,-11.76677,-4.15098
70.65000,-11.77530,-4.15815
70.70001,-11.78384,-4.16740
70.75000,-11.79197,-4.17260
70.80000,-11.80024,-4.17898
70.85001,-11.80890,-4.18668
70.90000,-11.81704,-4.19209
70.95001,-11.82530,-4.19856
71.00000,-11.83370,-4.20284
71.05000,-11.84210,-4.20858
71.10001,-11.85024,-4.21284
71.15000,-11.85850,-4.21603
71.20001,-11.86690,-4.22103
71.25000,-11.87530,-4.22441
71.30000,-11.88344,-4.22974
71.35001,-11.89157,-4.23184
71.40000,-11.90024,-4.23641
71.45001,-11.90864,-4.23972
71.50000,-11.91677,-4.24261
71.55000,-11.92530,-4.24717
71.60001,-11.93384,-4.25035
71.65000,-11.94184,-4.25338
71.70001,-11.95024,-4.25456
71.75000,-11.95877,-4.25817
71.80000,-11.96677,-4.26206
71.85001,-11.97504,-4.26294
71.90000,-11.98357,-4.26747
71.95001,-11.99184,-4.27029
72.00000,-12.00010,-4.27376
72.05000,-12.00850,-4.27504
72.10001,-12.01677,-4.27922
72.15000,-12.02504,-4.28066
72.20001,-12.03344,-4.28444
72.25000,-12.04170,-4.28621
72.30000,-12.05024,-4.28892
72.35001,-12.05864,-4.29227
72.40000,-12.06677,-4.29414
72.45001,-12.07530,-4.29531
72.50000,-12.08384,-4.30033
72.55000,-12.09197,-4.30021
72.60001,-12.10024,-4.30293
72.65000,-12.10877,-4.30371
72.70001,-12.11690,-4.30770
72.75000,-12.12517,-4.30731
72.80000,-12.13370,-4.31205
72.85001,-12.14184,-4.31284
72.90000,-12.14997,-4.31746
72.95001,-12.15837,-4.31757
73.00000,-12.16704,-4.32066
73.05000,-12.17517,-4.32296
73.10001,-12.18357,-4.32426
73.15000,-12.19210,-4.32569
73.20001,-12.20024,-4.32884
73.25000,-12.20864,-4.32908
73.30000,-12.21690,-4.33212
73.35001,-12.22544,-4.33162
73.40000,-12.23370,-4.33699
73.45001,-12.24197,-4.33705
73.50000,-12.25024,-4.33955
73.55000,-12.25877,-4.33981
73.60001,-12.26704,-4.34457
73.65000,-12.27517,-4.34345
73.70001,-12.28357,-4.34541
73.75000,-12.29184,-4.34828
73.80000,-12.30010,-4.34877
73.85001,-12.30864,-4.35005
73.90000,-12.31717,-4.35360
73.95001,-12.32530,-4.35435
74.00000,-12.33370,-4.35593
74.05000,-12.34224,-4.35791
74.10001,-12.35037,-4.35717
74.15000,-12.35864,-4.35854
74.20001,-12.36704,-4.35833
74.25000,-12.37544,-4.36011
74.30000,-12.38357,-4.36052
74.35001,-12.39197,-4.36230
74.40000,-12.40037,-4.36176
74.45001,-12.40864,-4.36337
74.50000,-12.41690,-4.36312
74.55000,-12.42517,-4.36435
74.60001,-12.43370,-4.36572
74.65000,-12.44197,-4.36664
74.70001,-12.45024,-4.36708
74.75000,-12.45877,-4.36760
74.80000,-12.46704,-4.36759
74.85001,-12.47517,-4.37005
74.90000,-12.48357,-4.36797
74.95001,-12.49224,-4.37043
75.00000,-12.50024,-4.37006
75.05000,-12.50850,-4.37056
75.10001,-12.51690,-4.37149
75.15000,-12.52517,-4.37183
75.20001,-12.53344,-4.37227
75.25000,-12.54170,-4.37235
75.30000,-12.55010,-4.37262
75.35001,-12.55837,-4.37359
75.40000,-12.56664,-4.37346
75.45001,-12.57504,-4.37536
75.50000,-12.58357,-4.37559
75.55000,-12.59197,-4.37806
75.60001,-12.60010,-4.37903
75.65000,-12.60864,-4.38072
75.70001,-12.61690,-4.38010
75.75000,-12.62504,-4.38316
75.80000,-12.63330,-4.38226
75.85001,-12.64197,-4.38549
75.90000,-12.65010,-4.38700
75.95001,-12.65837,-4.38866
76.00000,-12.66704,-4.38996
76.05000,-12.67517,-4.39158
76.10001,-12.68330,-4.39106
76.15000,-12.69170,-4.39278
76.20001,-12.70024,-4.39540
76.25000,-12.70850,-4.39712
76.30000,-12.71690,-4.39657
76.35001,-12.72544,-4.39926
76.40000,-12.73370,-4.39950
76.45001,-12.74197,-4.40209
76.50000,-12.75037,-4.40358
76.55000,-12.75890,-4.40452
76.60001,-12.76717,-4.40504
76.65000,-12.77544,-4.40629
76.70001,-12.78357,-4.40615
76.75000,-12.79197,-4.40824
76.80000,-12.80024,-4.40875
76.85001,-12.80850,-4.40866
76.90000,-12.81690,-4.40897
76.95001,-12.82517,-4.41093
77.00000,-12.83344,-4.40981
77.05000,-12.84197,-4.41195
77.10001,-12.85050,-4.41425
77.15000,-12.85864,-4.41563
77.20001,-12.86690,-4.41387
77.25000,-12.87543,-4.41862
77.30000,-12.88370,-4.41691
77.35001,-12.89197,-4.42082
77.40000,-12.90037,-4.41896
77.45001,-12.90863,-4.42115
77.50000,-12.91690,-4.42177
77.55000,-12.92517,-4.42217
77.60001,-12.93357,-4.42348
77.65000,-12.94197,-4.42337
77.70001,-12.95024,-4.42532
77.75000,-12.95850,-4.42448
77.80000,-12.96704,-4.42614
77.85001,-12.97530,-4.42951
77.90000,-12.98343,-4.42803
77.95001,-12.99197,-4.43013
78.00000,-13.00050,-4.43183
78.05000,-13.00850,-4.43228
78.10001,-13.01690,-4.43331
78.15000,-13.02543,-4.43401
78.20001,-13.03343,-4.43625
78.25000,-13.04184,-4.43628
78.30000,-13.05023,-4.43800
78.35001,-13.05850,-4.43877
78.40000,-13.06677,-4.44070
78.45001,-13.07517,-4.43984
78.50000,-13.08343,-4.44203
78.55000,-13.09170,-4.44122
78.60001,-13.10010,-4.44338
78.65000,-13.10837,-4.44392
78.70001,-13.11690,-4.44500
78.75000,-13.12530,-4.44652
78.80000,-13.13343,-4.44708
78.85001,-13.14197,-4.44596
78.90000,-13.15037,-4.44921
78.95001,-13.15863,-4.44987
79.00000,-13.16690,-4.45059
79.05000,-13.17543,-4.45107
79.10001,-13.18357,-4.45325
79.15000,-13.19183,-4.45194
79.20001,-13.20037,-4.45326
79.25000,-13.20850,-4.45520
79.30000,-13.21677,-4.45595
79.35001,-13.22503,-4.45760
79.40000,-13.23357,-4.45825
79.45001,-13.24183,-4.45968
79.50000,-13.25023,-4.46197
79.55000,-13.25877,-4.46363
79.60001,-13.26703,-4.46476
79.65000,-13.27530,-4.46536
79.70001,-13.28370,-4.46714
79.75000,-13.29210,-4.46746
79.80000,-13.30037,-4.46996
79.85001,-13.30863,-4.47052
79.90000,-13.31690,-4.47138
79.95001,-13.32543,-4.47227
80.00000,-13.33370,-4.47443
80.05000,-13.34170,-4.47293
80.10001,-13.35037,-4.47325
80.15000,-13.35863,-4.47442
80.20001,-13.36690,-4.47479
80.25000,-13.37530,-4.47589
80.30000,-13.38383,-4.47771
80.35001,-13.39197,-4.47737
80.40000,-13.40037,-4.47887
80.45001,-13.40903,-4.47874
80.50001,-13.41717,-4.47940
80.55000,-13.42543,-4.47875
80.60001,-13.43383,-4.48132
80.65000,-13.44223,-4.48022
80.70001,-13.45037,-4.48034
80.75001,-13.45863,-4.47933
80.80000,-13.46703,-4.47929
80.85001,-13.47530,-4.47856
80.90000,-13.48357,-4.47748
80.95001,-13.49183,-4.47823
81.00001,-13.50037,-4.47726
81.05000,-13.50863,-4.47714
81.10001,-13.51677,-4.47611
81.15000,-13.52530,-4.47661
81.20001,-13.53383,-4.47638
81.25001,-13.54183,-4.47678
81.30000,-13.55023,-4.47581
81.35001,-13.55877,-4.47691
81.40000,-13.56677,-4.47745
81.45001,-13.57503,-4.47605
81.50001,-13.58357,-4.47795
81.55000,-13.59183,-4.47798
81.60001,-13.59983,-4.47724
81.65000,-13.60823,-4.47971
81.70001,-13.61663,-4.48112
81.75001,-13.62490,-4.48110
81.80000,-13.63317,-4.48265
81.85001,-13.64170,-4.48364
81.90000,-13.65023,-4.48674
81.95001,-13.65863,-4.48875
82.00001,-13.66677,-4.48904
82.05000,-13.67530,-4.48929
82.10001,-13.68370,-4.49225
82.15000,-13.69183,-4.49273
82.20001,-13.70010,-4.49345
82.25001,-13.70877,-4.49528
82.30000,-13.71677,-4.49674
82.35001,-13.72503,-4.49565
82.40000,-13.73357,-4.49794
82.45001,-13.74197,-4.49885
82.50001,-13.75010,-4.50082
82.55000,-13.75850,-4.49919
82.60001,-13.76703,-4.50267
82.65000,-13.77530,-4.50299
82.70001,-13.78357,-4.50415
82.75001,-13.79210,-4.50475
82.80000,-13.80037,-4.50673
82.85001,-13.80877,-4.50834
82.90000,-13.81717,-4.51126
82.95001,-13.82543,-4.51076
83.00001,-13.83383,-4.51484
83.05000,-13.84210,-4.51811
83.10001,-13.85037,-4.51638
83.15000,-13.85877,-4.52076
83.20001,-13.86703,-4.52332
83.25001,-13.87517,-4.52472
83.30000,-13.88370,-4.52612
83.35001,-13.89197,-4.53107
83.40000,-13.90010,-4.53049
83.45001,-13.90863,-4.53336
83.50001,-13.91717,-4.53771
83.55000,-13.92530,-4.54026
83.60001,-13.93357,-4.54378
83.65000,-13.94210,-4.54503
83.70001,-13.95023,-4.54723
83.75001,-13.95850,-4.55040
83.80000,-13.96703,-4.55126
83.85001,-13.97530,-4.55501
83.90000,-13.98370,-4.55486
83.95001,-13.99197,-4.56017
84.00001,-14.00037,-4.55932
84.05000,-14.00863,-4.56154
84.10001,-14.01690,-4.56302
84.15000,-14.02517,-4.56641
84.20001,-14.03370,-4.56796
84.25001,-14.04183,-4.56998
84.30000,-14.04997,-4.57230
84.35001,-14.05863,-4.57326
84.40000,-14.06703,-4.57701
84.45001,-14.07530,-4.57979
84.50001,-14.08357,-4.58134
84.55000,-14.09210,-4.58325
84.60001,-14.10023,-4.58400
84.65000,-14.10850,-4.58589
84.70001,-14.11690,-4.58876
84.75001,-14.12517,-4.59171
84.80000,-14.13343,-4.59451
84.85001,-14.14170,-4.59779
84.90000,-14.15010,-4.60166
84.95001,-14.15837,-4.60351
85.00001,-14.16677,-4.60883
85.05000,-14.17503,-4.61080
85.10001,-14.18370,-4.61509
85.15000,-14.19197,-4.61842
85.20001,-14.20010,-4.62188
85.25001,-14.20863,-4.62492
85.30000,-14.21703,-4.62878
85.35001,-14.22517,-4.63273
85.40000,-14.23343,-4.63514
85.45001,-14.24210,-4.63813
85.50001,-14.25023,-4.64333
85.55000,-14.25837,-4.64464
85.60001,-14.26703,-4.64807
85.65000,-14.27530,-4.65231
85.70001,-14.28330,-4.65473
85.75001,-14.29170,-4.65701
85.80000,-14.30037,-4.66271
85.85001,-14.30863,-4.66626
85.90000,-14.31703,-4.66823
85.95001,-14.32543,-4.67312
86.00001,-14.33370,-4.67388
86.05000,-14.34197,-4.67780
86.10001,-14.35036,-4.68188
86.15000,-14.35876,-4.68430
86.20001,-14.36703,-4.68633
86.25001,-14.37543,-4.68906
86.30000,-14.38356,-4.68901
86.35001,-14.39210,-4.69318
86.40000,-14.40023,-4.69376
86.45001,-14.40850,-4.69432
86.50001,-14.41703,-4.69598
86.55000,-14.42530,-4.69923
86.60001,-14.43343,-4.70765
86.65000,-14.44197,-4.69446
86.70001,-14.45050,-4.71137
86.75001,-14.45863,-4.69655
86.80000,-14.46690,-4.71034
86.85001,-14.47556,-4.70394
86.90000,-14.48370,-4.71659
86.95001,-14.49196,-4.71061
87.00001,-14.50050,-4.72203
87.05000,-14.50876,-4.71786
87.10001,-14.51690,-4.72478
87.15000,-14.52530,-4.72527
87.20001,-14.53370,-4.72974
87.25001,-14.54196,-4.72933
87.30000,-14.55010,-4.73842
87.35001,-14.55836,-4.73311
87.40000,-14.56690,-4.74149
87.45001,-14.57530,-4.74180
87.50001,-14.58343,-4.74516
87.55000,-14.59210,-4.74889
87.60001,-14.60050,-4.75298
87.65000,-14.60850,-4.75584
87.70001,-14.61676,-4.75718
87.75001,-14.62543,-4.76081
87.80000,-14.63356,-4.76505
87.85001,-14.64183,-4.76835
87.90000,-14.65036,-4.77101
87.95001,-14.65863,-4.77526
88.00001,-14.66676,-4.77874
88.05000,-14.67503,-4.77940
88.10001,-14.68343,-4.78591
88.15000,-14.69183,-4.78748
88.20001,-14.70010,-4.79317
88.25001,-14.70836,-4.79728
88.30000,-14.71690,-4.79985
88.35001,-14.72530,-4.80671
88.40000,-14.73356,-4.81024
88.45001,-14.74196,-4.81427
88.50001,-14.75050,-4.81800
88.55000,-14.75850,-4.82331
88.60001,-14.76676,-4.82567
88.65000,-14.77543,-4.83187
88.70001,-14.78356,-4.83666
88.75001,-14.79170,-4.83930
88.80000,-14.80023,-4.84360
88.85001,-14.80863,-4.84896
88.90000,-14.81676,-4.85194
88.95001,-14.82516,-4.85709
89.00001,-14.83370,-4.86248
89.05000,-14.84183,-4.86828
89.10001,-14.85023,-4.87108
89.15000,-14.85863,-4.87768
89.20001,-14.86703,-4.88210
89.25001,-14.87530,-4.88844
89.30000,-14.88370,-4.89348
89.35001,-14.89210,-4.89899
89.40000,-14.90050,-4.90427
89.45001,-14.90876,-4.91060
89.50001,-14.91690,-4.91359
89.55000,-14.92543,-4.92080
89.60001,-14.93356,-4.92624
89.65000,-14.94183,-4.93068
89.70001,-14.95036,-4.93698
89.75001,-14.95863,-4.94510
89.80000,-14.96676,-4.94948
89.85001,-14.97543,-4.95668
89.90000,-14.98396,-4.96409
89.95001,-14.99196,-4.96988
90.00001,-15.00023,-4.97464
90.05000,-15.00876,-4.98238
90.10001,-15.01690,-4.98839
90.15000,-15.02530,-4.99425
90.20001,-15.03370,-5.00129
90.23601,-15.03970,-5.00593
