Time,Extension,Load
(sec),(mm),(N)
0.00000,-0.00027,-0.12897
0.05000,-0.00133,-0.12692
0.10000,-0.00560,-0.13111
0.15000,-0.01440,-0.13772
0.20000,-0.02547,-0.14830
0.25000,-0.03587,-0.15784
0.30000,-0.04547,-0.16690
0.35000,-0.05493,-0.17376
0.40000,-0.06427,-0.18188
0.45000,-0.07307,-0.18737
0.50000,-0.08187,-0.19540
0.55000,-0.09080,-0.19974
0.60000,-0.09933,-0.20686
0.65000,-0.10773,-0.21192
0.70000,-0.11627,-0.21821
0.75000,-0.12493,-0.22329
0.80000,-0.13333,-0.22890
0.85000,-0.14173,-0.23485
0.90000,-0.15040,-0.23964
0.95000,-0.15867,-0.24489
1.00000,-0.16680,-0.24950
1.05000,-0.17533,-0.25487
1.10000,-0.18373,-0.26009
1.15000,-0.19187,-0.26453
1.20000,-0.20013,-0.27048
1.25000,-0.20867,-0.27463
1.30000,-0.21680,-0.27937
1.35000,-0.22507,-0.28503
1.40000,-0.23347,-0.28907
1.45000,-0.24173,-0.29435
1.50000,-0.25000,-0.29822
1.55000,-0.25840,-0.30542
1.60000,-0.26680,-0.30821
1.65000,-0.27533,-0.31490
1.70000,-0.28360,-0.31858
1.75000,-0.29187,-0.32502
1.80000,-0.30053,-0.32883
1.85000,-0.30880,-0.33511
1.90000,-0.31680,-0.33885
1.95000,-0.32533,-0.34499
2.00000,-0.33373,-0.34926
2.05000,-0.34160,-0.35470
2.10000,-0.35000,-0.35905
2.15000,-0.35853,-0.36524
2.20000,-0.36653,-0.36991
2.25000,-0.37493,-0.37443
2.30000,-0.38347,-0.38054
2.35000,-0.39173,-0.38448
2.40000,-0.40000,-0.39139
2.45000,-0.40867,-0.39528
2.50000,-0.41707,-0.40169
2.55000,-0.42533,-0.40625
2.60000,-0.43373,-0.41124
2.65000,-0.44200,-0.41696
2.70000,-0.45040,-0.42184
2.75000,-0.45880,-0.42738
2.80000,-0.46680,-0.43243
2.85000,-0.47533,-0.43690
2.90000,-0.48360,-0.44381
2.95000,-0.49173,-0.44714
3.00000,-0.50013,-0.45308
3.05000,-0.50867,-0.45842
3.10000,-0.51667,-0.46337
3.15000,-0.52507,-0.46902
3.20000,-0.53373,-0.47325
3.25000,-0.54200,-0.47928
3.30000,-0.55013,-0.48428
3.35000,-0.55867,-0.48892
3.40000,-0.56707,-0.49509
3.45000,-0.57533,-0.49964
3.50000,-0.58373,-0.50538
3.55000,-0.59213,-0.51148
3.60000,-0.60040,-0.51591
3.65000,-0.60853,-0.52161
3.70000,-0.61693,-0.52709
3.75000,-0.62533,-0.53267
3.80000,-0.63360,-0.53776
3.85000,-0.64173,-0.54320
3.90000,-0.65013,-0.54902
3.95000,-0.65853,-0.55411
4.00000,-0.66680,-0.55981
4.05000,-0.67507,-0.56550
4.10000,-0.68373,-0.57052
4.15000,-0.69213,-0.57681
4.20000,-0.70026,-0.58138
4.25000,-0.70866,-0.58772
4.30000,-0.71706,-0.59201
4.35000,-0.72506,-0.59845
4.40000,-0.73346,-0.60278
4.45000,-0.74200,-0.60910
4.50000,-0.75013,-0.61448
4.55000,-0.75840,-0.61966
4.60000,-0.76680,-0.62386
4.65000,-0.77493,-0.63055
4.70000,-0.78333,-0.63471
4.75000,-0.79173,-0.64187
4.80000,-0.80026,-0.64600
4.85000,-0.80880,-0.65335
4.90000,-0.81706,-0.65784
4.95000,-0.82520,-0.66313
5.00000,-0.83373,-0.66874
5.05000,-0.84200,-0.67396
5.10000,-0.85013,-0.67982
5.15000,-0.85866,-0.68396
5.20000,-0.86706,-0.69127
5.25000,-0.87506,-0.69537
5.30000,-0.88333,-0.70128
5.35000,-0.89186,-0.70668
5.40000,-0.90000,-0.71164
5.45000,-0.90826,-0.71745
5.50000,-0.91680,-0.72285
5.55000,-0.92520,-0.72800
5.60000,-0.93346,-0.73432
5.65000,-0.94200,-0.73866
5.70000,-0.95026,-0.74563
5.75000,-0.95853,-0.75016
5.80000,-0.96706,-0.75668
5.85000,-0.97533,-0.76084
5.90000,-0.98386,-0.76718
5.95000,-0.99213,-0.77232
6.00000,-1.00013,-0.77840
6.05000,-1.00866,-0.78304
6.10000,-1.01720,-0.78828
6.15000,-1.02520,-0.79471
6.20000,-1.03346,-0.79790
6.25000,-1.04200,-0.80509
6.30000,-1.05000,-0.81000
6.35000,-1.05840,-0.81504
6.40000,-1.06706,-0.82106
6.45000,-1.07533,-0.82670
6.50000,-1.08346,-0.83139
6.55000,-1.09200,-0.83720
6.60000,-1.10040,-0.84246
6.65000,-1.10866,-0.84726
6.70000,-1.11706,-0.85382
6.75000,-1.12546,-0.85658
6.80000,-1.13373,-0.86441
6.85000,-1.14186,-0.86745
6.90000,-1.15026,-0.87409
6.95000,-1.15866,-0.87796
7.00000,-1.16693,-0.88470
7.05000,-1.17506,-0.88792
7.10000,-1.18346,-0.89520
7.15000,-1.19186,-0.89809
7.20000,-1.20013,-0.90533
7.25000,-1.20840,-0.90880
7.30000,-1.21706,-0.91458
7.35000,-1.22533,-0.91984
7.40000,-1.23346,-0.92499
7.45000,-1.24200,-0.92883
7.50000,-1.25053,-0.93555
7.55000,-1.25853,-0.93905
7.60000,-1.26680,-0.94544
7.65000,-1.27533,-0.94862
7.70000,-1.28346,-0.95500
7.75000,-1.29173,-0.95837
7.80000,-1.30013,-0.96460
7.85000,-1.30840,-0.96867
7.90000,-1.31666,-0.97360
7.95000,-1.32520,-0.97965
8.00000,-1.33360,-0.98284
8.05000,-1.34186,-0.98945
8.10000,-1.35026,-0.99263
8.15000,-1.35853,-0.99908
8.20000,-1.36706,-1.00280
8.25000,-1.37533,-1.00890
8.30000,-1.38346,-1.01303
8.35000,-1.39200,-1.01774
8.40000,-1.40040,-1.02281
8.45000,-1.40840,-1.02848
8.50000,-1.41680,-1.03170
8.55000,-1.42533,-1.03737
8.60000,-1.43333,-1.04185
8.65000,-1.44146,-1.04642
8.70000,-1.45013,-1.05147
8.75000,-1.45853,-1.05684
8.80000,-1.46693,-1.06166
8.85000,-1.47546,-1.06661
8.90000,-1.48386,-1.07203
8.95000,-1.49213,-1.07493
9.00000,-1.50040,-1.08193
9.05000,-1.50866,-1.08431
9.10000,-1.51706,-1.09082
9.15000,-1.52533,-1.09459
9.20000,-1.53346,-1.10050
9.25000,-1.54200,-1.10343
9.30000,-1.55040,-1.11002
9.35000,-1.55840,-1.11359
9.40000,-1.56680,-1.11792
9.45000,-1.57520,-1.12397
9.50000,-1.58333,-1.12677
9.55000,-1.59173,-1.13429
9.60000,-1.60040,-1.13470
9.65000,-1.60866,-1.14451
9.70000,-1.61680,-1.14372
9.75000,-1.62533,-1.15304
9.80000,-1.63373,-1.15338
9.85000,-1.64200,-1.16116
9.90000,-1.65040,-1.16306
9.95000,-1.65866,-1.16928
10.00000,-1.66680,-1.17254
10.05000,-1.67506,-1.17689
10.10000,-1.68333,-1.18097
10.15000,-1.69186,-1.18464
10.20000,-1.70013,-1.19088
10.25000,-1.70826,-1.19354
10.30000,-1.71666,-1.19884
10.35000,-1.72520,-1.20257
10.40000,-1.73346,-1.20782
10.45000,-1.74173,-1.21163
10.50000,-1.75040,-1.21519
10.55000,-1.75866,-1.22115
10.60000,-1.76680,-1.22298
10.65000,-1.77533,-1.22943
10.70000,-1.78373,-1.23097
10.75000,-1.79186,-1.23902
10.80000,-1.80026,-1.23833
10.85000,-1.80880,-1.24777
10.90000,-1.81693,-1.24632
10.95000,-1.82520,-1.25671
11.00000,-1.83346,-1.25355
11.05000,-1.84173,-1.26479
11.10000,-1.85000,-1.26171
11.15000,-1.85840,-1.27423
11.20000,-1.86693,-1.26872
11.25000,-1.87533,-1.28173
11.30000,-1.88360,-1.27867
11.35000,-1.89186,-1.28837
11.40000,-1.90040,-1.28792
11.45000,-1.90866,-1.29518
11.50000,-1.91680,-1.29817
11.55000,-1.92533,-1.30143
11.60000,-1.93373,-1.30546
11.65000,-1.94173,-1.30943
11.70000,-1.95013,-1.31249
11.75000,-1.95866,-1.31826
11.80000,-1.96666,-1.31837
11.85000,-1.97493,-1.32664
11.90000,-1.98360,-1.32671
11.95000,-1.99186,-1.33367
12.00000,-2.00013,-1.33375
12.05000,-2.00866,-1.34206
12.10000,-2.01706,-1.34119
12.15000,-2.02533,-1.34918
12.20000,-2.03373,-1.34830
12.25000,-2.04186,-1.35726
12.30000,-2.05040,-1.35437
12.35000,-2.05866,-1.36385
12.40000,-2.06680,-1.36213
12.45000,-2.07533,-1.37046
12.50000,-2.08359,-1.36892
12.55000,-2.09159,-1.37611
12.60000,-2.09999,-1.37652
12.65000,-2.10853,-1.38237
12.70000,-2.11666,-1.38549
12.75000,-2.12506,-1.38793
12.80000,-2.13386,-1.39459
12.85000,-2.14199,-1.39505
12.90000,-2.15026,-1.40197
12.95000,-2.15879,-1.40109
13.00000,-2.16706,-1.40918
13.05000,-2.17533,-1.40741
13.10000,-2.18359,-1.41593
13.15000,-2.19213,-1.41569
13.20000,-2.20026,-1.42122
13.25000,-2.20866,-1.42251
13.30000,-2.21693,-1.42776
13.35000,-2.22533,-1.42916
13.40000,-2.23359,-1.43394
13.45000,-2.24186,-1.43531
13.50000,-2.25013,-1.44059
13.55000,-2.25866,-1.44217
13.60000,-2.26693,-1.44669
13.65000,-2.27519,-1.44903
13.70000,-2.28386,-1.45232
13.75000,-2.29213,-1.45613
13.80000,-2.30013,-1.45825
13.85000,-2.30866,-1.46215
13.90000,-2.31719,-1.46425
13.95000,-2.32519,-1.46788
14.00000,-2.33346,-1.46977
14.05000,-2.34199,-1.47343
14.10000,-2.34999,-1.47519
14.15000,-2.35826,-1.47828
14.20000,-2.36679,-1.48057
14.25000,-2.37506,-1.48421
14.30000,-2.38346,-1.48569
14.35000,-2.39186,-1.48991
14.40000,-2.40026,-1.49053
14.45000,-2.40866,-1.49491
14.50000,-2.41693,-1.49614
14.55000,-2.42506,-1.49869
14.60000,-2.43373,-1.50051
14.65000,-2.44199,-1.50344
14.70000,-2.45013,-1.50489
14.75000,-2.45866,-1.50693
14.80000,-2.46706,-1.50990
14.85000,-2.47506,-1.51126
14.90000,-2.48346,-1.51203
14.95000,-2.49213,-1.51536
15.00000,-2.50013,-1.51671
15.05000,-2.50839,-1.51905
15.10000,-2.51693,-1.52035
15.15000,-2.52519,-1.52395
15.20000,-2.53346,-1.52537
15.25000,-2.54186,-1.52679
15.30000,-2.55039,-1.53020
15.35000,-2.55866,-1.53090
15.40000,-2.56706,-1.53591
15.45000,-2.57533,-1.53410
15.50000,-2.58373,-1.53977
15.55000,-2.59199,-1.53852
15.60000,-2.60013,-1.54194
15.65000,-2.60866,-1.54257
15.70000,-2.61706,-1.54602
15.75000,-2.62506,-1.54807
15.80000,-2.63346,-1.54871
15.85000,-2.64186,-1.55341
15.90000,-2.64999,-1.55357
15.95000,-2.65839,-1.55875
16.00000,-2.66706,-1.55784
16.05000,-2.67533,-1.56267
16.10000,-2.68346,-1.56316
16.15000,-2.69199,-1.56623
16.20000,-2.70039,-1.56888
16.25000,-2.70853,-1.57036
16.30000,-2.71693,-1.57432
16.35000,-2.72533,-1.57470
16.40000,-2.73373,-1.57997
16.45000,-2.74186,-1.57754
16.50000,-2.75013,-1.58609
16.55000,-2.75853,-1.58241
16.60000,-2.76679,-1.58845
16.65000,-2.77506,-1.58832
16.70000,-2.78346,-1.59325
16.75000,-2.79199,-1.59238
16.80000,-2.80026,-1.59992
16.85000,-2.80866,-1.59668
16.90000,-2.81719,-1.60487
16.95000,-2.82546,-1.60169
17.00000,-2.83346,-1.60918
17.05000,-2.84199,-1.60537
17.10000,-2.85053,-1.61333
17.15000,-2.85853,-1.61089
17.20000,-2.86693,-1.61667
17.25000,-2.87533,-1.61523
17.30000,-2.88346,-1.62100
17.35000,-2.89159,-1.61783
17.40000,-2.90013,-1.62616
17.45000,-2.90839,-1.61997
17.50000,-2.91666,-1.63388
17.55000,-2.92506,-1.61838
17.60000,-2.93346,-1.64416
17.65000,-2.94199,-1.62113
17.70000,-2.95026,-1.64399
17.75000,-2.95853,-1.62997
17.80000,-2.96706,-1.64399
17.85000,-2.97533,-1.63513
17.90000,-2.98346,-1.64734
17.95000,-2.99199,-1.63688
18.00000,-3.00039,-1.65037
18.05000,-3.00839,-1.64428
18.10000,-3.01679,-1.64619
18.15000,-3.02533,-1.65458
18.20000,-3.03346,-1.64656
18.25000,-3.04159,-1.65639
18.30000,-3.05026,-1.65141
18.35000,-3.05853,-1.65979
18.40000,-3.06679,-1.65372
18.45000,-3.07519,-1.66460
18.50000,-3.08359,-1.65612
18.55000,-3.09186,-1.66736
18.60000,-3.10026,-1.66011
18.65000,-3.10853,-1.67026
18.70000,-3.11706,-1.66306
18.75000,-3.12546,-1.67497
18.80000,-3.13346,-1.66552
18.85000,-3.14199,-1.67650
18.90000,-3.15039,-1.67372
18.95000,-3.15839,-1.67520
19.00000,-3.16679,-1.67802
19.05000,-3.17533,-1.67874
19.10000,-3.18346,-1.68319
19.15000,-3.19173,-1.68133
19.20000,-3.20039,-1.68318
19.25000,-3.20866,-1.68839
19.30000,-3.21679,-1.68588
19.35000,-3.22533,-1.69085
19.40000,-3.23386,-1.68792
19.45000,-3.24199,-1.69610
19.50000,-3.25039,-1.69009
19.55000,-3.25879,-1.69885
19.60000,-3.26693,-1.69275
19.65000,-3.27519,-1.70207
19.70000,-3.28359,-1.69566
19.75000,-3.29199,-1.70653
19.80000,-3.30039,-1.69879
19.85000,-3.30853,-1.70971
19.90000,-3.31693,-1.70268
19.95000,-3.32546,-1.71186
20.00000,-3.33359,-1.71001
20.05000,-3.34186,-1.71298
20.10000,-3.35039,-1.71240
20.15000,-3.35866,-1.71760
20.20000,-3.36679,-1.71838
20.25000,-3.37533,-1.71754
20.30000,-3.38386,-1.72495
20.35000,-3.39186,-1.71803
20.40000,-3.40013,-1.72888
20.45000,-3.40866,-1.72323
20.50000,-3.41679,-1.72835
20.55000,-3.42493,-1.72965
20.60000,-3.43332,-1.73021
20.65000,-3.44159,-1.73288
20.70000,-3.45012,-1.73398
20.75000,-3.45839,-1.73732
20.80000,-3.46679,-1.73758
20.85000,-3.47532,-1.74219
20.90000,-3.48359,-1.73756
20.95000,-3.49172,-1.75043
21.00000,-3.50039,-1.73957
21.05000,-3.50866,-1.75183
21.10000,-3.51679,-1.74726
21.15000,-3.52532,-1.75353
21.20000,-3.53372,-1.75105
21.25000,-3.54172,-1.75786
21.30000,-3.55012,-1.75518
21.35000,-3.55866,-1.76030
21.40000,-3.56666,-1.76204
21.45000,-3.57479,-1.75900
21.50000,-3.58346,-1.77184
21.55000,-3.59186,-1.76171
21.60000,-3.59999,-1.77401
21.65000,-3.60852,-1.77010
21.70000,-3.61692,-1.77742
21.75000,-3.62519,-1.77226
21.80000,-3.63372,-1.78534
21.85000,-3.64199,-1.77598
21.90000,-3.65052,-1.78894
21.95000,-3.65879,-1.78230
22.00000,-3.66679,-1.79170
22.05000,-3.67532,-1.78835
22.10000,-3.68372,-1.79309
22.15000,-3.69172,-1.79781
22.20000,-3.69999,-1.79290
22.25000,-3.70866,-1.80483
22.30000,-3.71679,-1.79866
22.35000,-3.72519,-1.80847
22.40000,-3.73386,-1.80369
22.45000,-3.74199,-1.81375
22.50000,-3.75026,-1.81023
22.55000,-3.75866,-1.81585
22.60000,-3.76706,-1.81613
22.65000,-3.77532,-1.82198
22.70000,-3.78372,-1.81709
22.75000,-3.79212,-1.82979
22.80000,-3.80026,-1.82123
22.85000,-3.80852,-1.83089
22.90000,-3.81679,-1.82885
22.95000,-3.82519,-1.83328
23.00000,-3.83346,-1.83286
23.05000,-3.84172,-1.83853
23.10000,-3.84999,-1.83631
23.15000,-3.85852,-1.84381
23.20000,-3.86679,-1.83991
23.25000,-3.87506,-1.84974
23.30000,-3.88372,-1.84154
23.35000,-3.89212,-1.85548
23.40000,-3.90012,-1.84639
23.45000,-3.90866,-1.85584
23.50000,-3.91719,-1.85358
23.55000,-3.92519,-1.85895
23.60000,-3.93346,-1.85653
23.65000,-3.94199,-1.86329
23.70000,-3.95012,-1.86008
23.75000,-3.95839,-1.86716
23.80000,-3.96679,-1.86378
23.85000,-3.97506,-1.87055
23.90000,-3.98332,-1.86905
23.95000,-3.99186,-1.87330
24.00000,-4.00012,-1.87297
24.05000,-4.00866,-1.87771
24.10000,-4.01692,-1.87835
24.15000,-4.02506,-1.87896
24.20000,-4.03372,-1.88305
24.25000,-4.04199,-1.88252
24.30000,-4.05012,-1.88681
24.35000,-4.05866,-1.88700
24.40000,-4.06706,-1.88950
24.45000,-4.07492,-1.89028
24.50000,-4.08332,-1.89486
24.55000,-4.09186,-1.89240
24.60000,-4.09999,-1.89660
24.65000,-4.10826,-1.89959
24.70000,-4.11692,-1.89959
24.75000,-4.12519,-1.90243
24.80000,-4.13346,-1.90412
24.85000,-4.14199,-1.90661
24.90000,-4.15039,-1.90742
24.95000,-4.15866,-1.90843
25.00000,-4.16706,-1.91118
25.05000,-4.17519,-1.91336
25.10000,-4.18359,-1.91145
25.15000,-4.19199,-1.91642
25.20000,-4.20012,-1.91612
25.25000,-4.20866,-1.91975
25.30000,-4.21706,-1.91731
25.35000,-4.22506,-1.92440
25.40000,-4.23346,-1.92086
25.45000,-4.24199,-1.92560
25.50000,-4.24999,-1.92515
25.55000,-4.25826,-1.92502
25.60000,-4.26692,-1.93613
25.65000,-4.27519,-1.92025
25.70000,-4.28346,-1.93937
25.75000,-4.29199,-1.92738
25.80000,-4.30052,-1.93727
25.85000,-4.30866,-1.93273
25.90000,-4.31706,-1.93859
25.95000,-4.32546,-1.93544
26.00000,-4.33359,-1.94292
26.05000,-4.34186,-1.93576
26.10000,-4.35012,-1.94107
26.15000,-4.35852,-1.94193
26.20000,-4.36679,-1.94176
26.25000,-4.37506,-1.94228
26.30000,-4.38346,-1.94397
26.35000,-4.39199,-1.94345
26.40000,-4.40026,-1.94623
26.45000,-4.40839,-1.94501
26.50000,-4.41706,-1.94621
26.55000,-4.42532,-1.95111
26.60000,-4.43346,-1.94559
26.65000,-4.44199,-1.94909
26.70000,-4.45052,-1.95073
26.75000,-4.45852,-1.95143
26.80000,-4.46679,-1.94990
26.85000,-4.47532,-1.95355
26.90000,-4.48346,-1.95345
26.95000,-4.49172,-1.95397
27.00000,-4.50012,-1.95374
27.05000,-4.50839,-1.95542
27.10000,-4.51666,-1.95718
27.15000,-4.52506,-1.95610
27.20000,-4.53346,-1.95862
27.25000,-4.54199,-1.96071
27.30000,-4.55026,-1.96034
27.35000,-4.55852,-1.96315
27.40000,-4.56706,-1.96120
27.45000,-4.57546,-1.96713
27.50000,-4.58346,-1.96336
27.55000,-4.59186,-1.96835
27.60000,-4.60039,-1.96611
27.65000,-4.60839,-1.97003
27.70000,-4.61666,-1.96764
27.75000,-4.62532,-1.97266
27.80000,-4.63346,-1.96805
27.85000,-4.64172,-1.97634
27.90000,-4.65026,-1.97111
27.95000,-4.65852,-1.97497
28.00000,-4.66679,-1.97591
28.05000,-4.67532,-1.97725
28.10000,-4.68359,-1.97578
28.15000,-4.69186,-1.97709
28.20000,-4.70039,-1.97860
28.25000,-4.70866,-1.97824
28.30000,-4.71719,-1.97997
28.35000,-4.72546,-1.98012
28.40000,-4.73346,-1.98432
28.45000,-4.74199,-1.98136
28.50000,-4.75026,-1.98494
28.55000,-4.75826,-1.98331
28.60000,-4.76666,-1.98823
28.65000,-4.77519,-1.98484
28.70000,-4.78346,-1.99096
28.75000,-4.79185,-1.98761
28.80000,-4.80039,-1.99175
28.85000,-4.80866,-1.99152
28.90000,-4.81692,-1.99027
28.95000,-4.82546,-1.99693
29.00000,-4.83385,-1.99279
29.05000,-4.84199,-1.99705
29.10000,-4.85025,-1.99413
29.15000,-4.85865,-2.00213
29.20000,-4.86692,-1.99390
29.25000,-4.87532,-2.00392
29.30000,-4.88359,-1.99724
29.35000,-4.89185,-2.00561
29.40000,-4.90012,-1.99945
29.45000,-4.90825,-2.00690
29.50000,-4.91665,-2.00070
29.55000,-4.92519,-2.01049
29.60000,-4.93359,-2.00357
29.65000,-4.94199,-2.01097
29.70000,-4.95052,-2.00664
29.75000,-4.95865,-2.01319
29.80000,-4.96692,-2.00825
29.85000,-4.97532,-2.01421
29.90000,-4.98385,-2.01084
29.95000,-4.99185,-2.01625
30.00000,-5.00012,-2.01203
30.05000,-5.00865,-2.01671
30.10000,-5.01692,-2.01535
30.15000,-5.02505,-2.01743
30.20000,-5.03345,-2.01772
30.25000,-5.04185,-2.02016
30.30000,-5.05012,-2.02074
30.35000,-5.05852,-2.02349
30.40000,-5.06692,-2.02336
30.45000,-5.07545,-2.02638
30.50000,-5.08359,-2.02679
30.55000,-5.09185,-2.02866
30.60000,-5.10039,-2.02862
30.65000,-5.10865,-2.03271
30.70000,-5.11665,-2.03120
30.75000,-5.12532,-2.03419
30.80000,-5.13372,-2.03439
30.85000,-5.14172,-2.03625
30.90000,-5.15012,-2.03733
30.95000,-5.15865,-2.03866
31.00000,-5.16665,-2.03978
31.05000,-5.17492,-2.04186
31.10000,-5.18359,-2.04329
31.15000,-5.19172,-2.04516
31.20000,-5.19999,-2.04645
31.25000,-5.20852,-2.04916
31.30000,-5.21692,-2.04954
31.35000,-5.22532,-2.05343
31.40000,-5.23372,-2.05381
31.45000,-5.24199,-2.05634
31.50000,-5.25039,-2.05707
31.55000,-5.25865,-2.05954
31.60000,-5.26679,-2.06234
31.65000,-5.27532,-2.06175
31.70000,-5.28359,-2.06595
31.75000,-5.29159,-2.06617
31.80000,-5.30012,-2.06831
31.85000,-5.30865,-2.07020
31.90000,-5.31692,-2.07235
31.95000,-5.32505,-2.07381
32.00000,-5.33372,-2.07569
32.05000,-5.34185,-2.07808
32.10000,-5.35012,-2.07791
32.15000,-5.35865,-2.08177
32.20000,-5.36705,-2.08155
32.25000,-5.37519,-2.08392
32.30000,-5.38372,-2.08543
32.35000,-5.39212,-2.08589
32.40000,-5.40025,-2.08789
32.45000,-5.40852,-2.08828
32.50000,-5.41679,-2.08933
32.55000,-5.42519,-2.09050
32.60000,-5.43345,-2.09111
32.65000,-5.44172,-2.09177
32.70000,-5.45025,-2.09039
32.75000,-5.45879,-2.09235
32.80000,-5.46692,-2.08913
32.85000,-5.47519,-2.09053
32.90000,-5.48385,-2.09082
32.95000,-5.49212,-2.09309
33.00000,-5.50012,-2.09335
33.05000,-5.50865,-2.09512
33.10000,-5.51705,-2.09624
33.15000,-5.52505,-2.09874
33.20000,-5.53345,-2.09800
33.25000,-5.54199,-2.10259
33.30000,-5.55012,-2.10305
33.35000,-5.55839,-2.10470
33.40000,-5.56679,-2.10772
33.45000,-5.57505,-2.10663
33.50000,-5.58332,-2.11206
33.55000,-5.59172,-2.11191
33.60000,-5.60012,-2.11468
33.65000,-5.60865,-2.11585
33.70000,-5.61692,-2.12008
33.75000,-5.62519,-2.11949
33.80000,-5.63372,-2.12516
33.85000,-5.64212,-2.12451
33.90000,-5.65012,-2.12815
33.95000,-5.65865,-2.12895
34.00000,-5.66705,-2.13196
34.05000,-5.67492,-2.13329
34.10000,-5.68345,-2.13391
34.15000,-5.69199,-2.13789
34.20000,-5.70012,-2.13973
34.25000,-5.70825,-2.14140
34.30000,-5.71692,-2.14163
34.35000,-5.72505,-2.14669
34.40000,-5.73345,-2.14531
34.45000,-5.74199,-2.15038
34.50000,-5.75039,-2.14842
34.55000,-5.75852,-2.15363
34.60000,-5.76692,-2.15173
34.65000,-5.77519,-2.15793
34.70000,-5.78359,-2.15265
34.75000,-5.79199,-2.16047
34.80000,-5.80012,-2.15721
34.85000,-5.80865,-2.16021
34.90000,-5.81705,-2.16029
34.95000,-5.82505,-2.16072
35.00000,-5.83345,-2.16093
35.05000,-5.84199,-2.16303
35.10000,-5.84999,-2.16283
35.15000,-5.85839,-2.16460
35.20000,-5.86719,-2.16594
35.25000,-5.87532,-2.16865
35.30000,-5.88359,-2.16820
35.35000,-5.89212,-2.16973
35.40000,-5.90052,-2.17229
35.45000,-5.90865,-2.17287
35.50000,-5.91705,-2.17446
35.55000,-5.92532,-2.17453
35.60000,-5.93359,-2.17721
35.65000,-5.94185,-2.17706
35.70000,-5.95012,-2.17957
35.75000,-5.95852,-2.17872
35.80000,-5.96679,-2.18335
35.85000,-5.97505,-2.18163
35.90000,-5.98345,-2.18593
35.95000,-5.99199,-2.18385
36.00000,-6.00025,-2.19070
36.05000,-6.00839,-2.18704
36.10000,-6.01705,-2.19161
36.15000,-6.02532,-2.19164
36.20000,-6.03345,-2.19386
36.25000,-6.04212,-2.19528
36.30000,-6.05052,-2.19775
36.35000,-6.05852,-2.19661
36.40000,-6.06679,-2.20105
36.45000,-6.07532,-2.19917
36.50000,-6.08332,-2.20343
36.55000,-6.09159,-2.20110
36.60000,-6.10012,-2.20525
36.65000,-6.10839,-2.20381
36.70000,-6.11679,-2.20808
36.75000,-6.12519,-2.20711
36.80000,-6.13345,-2.21087
36.85000,-6.14198,-2.20917
36.90000,-6.15025,-2.21359
36.95000,-6.15838,-2.21219
37.00000,-6.16705,-2.21623
37.05000,-6.17532,-2.21612
37.10000,-6.18332,-2.21780
37.15000,-6.19198,-2.21943
37.20000,-6.20052,-2.22188
37.25000,-6.20838,-2.22283
37.30000,-6.21678,-2.22292
37.35000,-6.22532,-2.22634
37.40000,-6.23345,-2.22800
37.45000,-6.24158,-2.22817
37.50000,-6.25025,-2.23100
37.55000,-6.25852,-2.23082
37.60000,-6.26678,-2.23570
37.65000,-6.27518,-2.23465
37.70000,-6.28372,-2.23925
37.75000,-6.29198,-2.23736
37.80000,-6.30038,-2.24233
37.85000,-6.30865,-2.24024
37.90000,-6.31705,-2.24693
37.95000,-6.32545,-2.24166
38.00000,-6.33345,-2.24857
38.05000,-6.34198,-2.24551
38.10000,-6.35025,-2.25183
38.15000,-6.35825,-2.24785
38.20000,-6.36678,-2.25528
38.25000,-6.37518,-2.25121
38.30000,-6.38332,-2.25688
38.35000,-6.39172,-2.25431
38.40000,-6.40038,-2.25951
38.45000,-6.40852,-2.25880
38.50000,-6.41692,-2.26123
38.55000,-6.42545,-2.26088
38.60000,-6.43372,-2.26594
38.65000,-6.44198,-2.26427
38.70000,-6.45038,-2.26619
38.75000,-6.45878,-2.26661
38.80000,-6.46692,-2.26967
38.85000,-6.47518,-2.26587
38.90000,-6.48358,-2.26904
38.95000,-6.49198,-2.26678
39.00000,-6.50025,-2.26938
39.05000,-6.50852,-2.26912
39.10000,-6.51678,-2.26885
39.15000,-6.52532,-2.27254
39.20000,-6.53358,-2.27300
39.25000,-6.54185,-2.27459
39.30000,-6.55052,-2.27590
39.35000,-6.55878,-2.27839
39.40000,-6.56678,-2.27892
39.45000,-6.57518,-2.27855
39.50000,-6.58372,-2.28305
39.55000,-6.59185,-2.28292
39.60000,-6.60012,-2.28490
39.65000,-6.60865,-2.28557
39.70000,-6.61678,-2.28790
39.75000,-6.62505,-2.29020
39.80000,-6.63345,-2.28923
39.85000,-6.64172,-2.29234
39.90000,-6.65012,-2.29255
39.95000,-6.65852,-2.29540
40.00000,-6.66678,-2.29561
40.05000,-6.67518,-2.29724
40.10000,-6.68358,-2.29965
40.15000,-6.69172,-2.30004
40.20000,-6.70038,-2.30073
40.25000,-6.70878,-2.30400
40.30000,-6.71678,-2.30512
40.35000,-6.72532,-2.30466
40.40000,-6.73358,-2.30812
40.45000,-6.74145,-2.30888
40.50000,-6.74998,-2.30964
40.55000,-6.75852,-2.31191
40.60000,-6.76665,-2.31391
40.65000,-6.77505,-2.31571
40.70000,-6.78358,-2.31814
40.75000,-6.79185,-2.31873
40.80000,-6.80025,-2.32268
40.85000,-6.80878,-2.32302
40.90000,-6.81705,-2.32591
40.95000,-6.82532,-2.32563
41.00000,-6.83372,-2.32960
41.05000,-6.84198,-2.32978
41.10000,-6.85038,-2.33145
41.15000,-6.85865,-2.33401
41.20000,-6.86678,-2.33463
41.25000,-6.87518,-2.33812
41.30000,-6.88358,-2.33525
41.35000,-6.89172,-2.34240
41.40000,-6.90012,-2.33860
41.45000,-6.90852,-2.34381
41.50000,-6.91665,-2.34257
41.55000,-6.92505,-2.34571
41.60000,-6.93372,-2.34632
41.65000,-6.94185,-2.34805
41.70000,-6.95012,-2.34963
41.75000,-6.95865,-2.35088
41.80000,-6.96718,-2.35352
41.85000,-6.97532,-2.35466
41.90000,-6.98358,-2.35482
41.95000,-6.99198,-2.35866
42.00000,-7.00025,-2.35728
42.05000,-7.00865,-2.36201
42.10000,-7.01692,-2.36040
42.15000,-7.02532,-2.36408
42.20000,-7.03358,-2.36410
42.25000,-7.04185,-2.36650
42.30000,-7.05025,-2.36645
42.35000,-7.05865,-2.36972
42.40000,-7.06692,-2.37014
42.45000,-7.07518,-2.37149
42.50000,-7.08372,-2.37233
42.55000,-7.09212,-2.37450
42.60000,-7.10025,-2.37353
42.65000,-7.10878,-2.37766
42.70000,-7.11718,-2.37551
42.75000,-7.12518,-2.38073
42.80000,-7.13358,-2.37642
42.85000,-7.14212,-2.38297
42.90000,-7.15025,-2.37951
42.95000,-7.15852,-2.38430
43.00000,-7.16692,-2.38138
43.05000,-7.17505,-2.38626
43.10000,-7.18345,-2.38523
43.15000,-7.19185,-2.38751
43.20000,-7.20025,-2.38886
43.25000,-7.20865,-2.39045
43.30000,-7.21692,-2.39184
43.35000,-7.22518,-2.39374
43.40000,-7.23372,-2.39406
43.45000,-7.24212,-2.39798
43.50000,-7.25012,-2.39687
43.55000,-7.25865,-2.39975
43.60000,-7.26705,-2.40027
43.65000,-7.27505,-2.40198
43.70000,-7.28332,-2.40235
43.75000,-7.29198,-2.40230
43.80000,-7.30012,-2.40640
43.85000,-7.30825,-2.40464
43.90000,-7.31678,-2.40888
43.95000,-7.32518,-2.40681
44.00000,-7.33332,-2.41241
44.05000,-7.34172,-2.40958
44.10000,-7.34998,-2.41500
44.15000,-7.35838,-2.41287
44.20000,-7.36678,-2.41675
44.25000,-7.37505,-2.41750
44.30000,-7.38358,-2.41832
44.35000,-7.39185,-2.42083
44.40000,-7.39985,-2.42100
44.45000,-7.40838,-2.42314
44.50000,-7.41678,-2.42360
44.55000,-7.42492,-2.42668
44.60000,-7.43345,-2.42717
44.65000,-7.44198,-2.42766
44.70000,-7.45011,-2.43059
44.75000,-7.45851,-2.42964
44.80000,-7.46705,-2.43291
44.85000,-7.47532,-2.43410
44.90000,-7.48358,-2.43403
44.95000,-7.49198,-2.43755
45.00000,-7.50038,-2.43696
45.05000,-7.50865,-2.44035
45.10000,-7.51705,-2.43876
45.15000,-7.52545,-2.44352
45.20000,-7.53358,-2.44257
45.25000,-7.54198,-2.44497
45.30000,-7.55025,-2.44683
45.35000,-7.55865,-2.44852
45.40000,-7.56691,-2.45013
45.45000,-7.57518,-2.45120
45.50000,-7.58358,-2.45412
45.55000,-7.59211,-2.45601
45.60000,-7.60025,-2.45796
45.65000,-7.60851,-2.46002
45.70000,-7.61718,-2.46121
45.75000,-7.62545,-2.46278
45.80000,-7.63345,-2.46515
45.85000,-7.64198,-2.46486
45.90000,-7.65038,-2.46925
45.95000,-7.65851,-2.46830
46.00000,-7.66678,-2.47158
46.05000,-7.67531,-2.47187
46.10000,-7.68345,-2.47640
46.15000,-7.69171,-2.47326
46.20000,-7.70011,-2.47975
46.25000,-7.70838,-2.47669
46.30000,-7.71678,-2.48175
46.35000,-7.72518,-2.47901
46.40000,-7.73358,-2.48282
46.45000,-7.74198,-2.47969
46.50000,-7.75025,-2.48845
46.55000,-7.75851,-2.48200
46.60000,-7.76705,-2.48892
46.65000,-7.77531,-2.48686
46.70000,-7.78345,-2.49106
46.75000,-7.79198,-2.49043
46.80000,-7.80038,-2.49582
46.85000,-7.80838,-2.49240
46.90000,-7.81678,-2.49792
46.95000,-7.82531,-2.49587
47.00000,-7.83331,-2.50094
47.05000,-7.84158,-2.49945
47.10000,-7.85025,-2.50349
47.15000,-7.85851,-2.50375
47.20000,-7.86678,-2.50759
47.25000,-7.87531,-2.50841
47.30000,-7.88371,-2.51072
47.35000,-7.89198,-2.51303
47.40000,-7.90038,-2.51463
47.45000,-7.90851,-2.51619
47.50000,-7.91705,-2.51943
47.55000,-7.92545,-2.52061
47.60000,-7.93345,-2.52357
47.65000,-7.94198,-2.52318
47.70000,-7.95025,-2.52688
47.75000,-7.95838,-2.52761
47.80000,-7.96678,-2.52909
47.85000,-7.97531,-2.53210
47.90000,-7.98345,-2.53320
47.95000,-7.99185,-2.53526
48.00000,-8.00038,-2.53677
48.05000,-8.00865,-2.54014
48.10000,-8.01678,-2.54014
48.15000,-8.02531,-2.54241
48.20000,-8.03371,-2.54457
48.25000,-8.04198,-2.54645
48.30000,-8.05038,-2.54810
48.35000,-8.05865,-2.55001
48.40000,-8.06678,-2.55177
48.45000,-8.07505,-2.55354
48.50000,-8.08345,-2.55463
48.55000,-8.09198,-2.55701
48.60000,-8.10025,-2.55835
48.65000,-8.10851,-2.56079
48.70000,-8.11678,-2.56005
48.75000,-8.12531,-2.56372
48.80000,-8.13345,-2.56360
48.85000,-8.14185,-2.56520
48.90000,-8.15038,-2.56498
48.95000,-8.15865,-2.56629
49.00000,-8.16678,-2.56688
49.05000,-8.17531,-2.56759
49.10000,-8.18385,-2.56944
49.15000,-8.19185,-2.57062
49.20000,-8.20011,-2.57098
49.25000,-8.20865,-2.57264
49.30000,-8.21678,-2.57328
49.35000,-8.22505,-2.57528
49.40000,-8.23345,-2.57579
49.45000,-8.24185,-2.57812
49.50000,-8.25011,-2.57970
49.55000,-8.25851,-2.58060
49.60000,-8.26691,-2.58233
49.65000,-8.27531,-2.58270
49.70000,-8.28358,-2.58533
49.75000,-8.29185,-2.58461
49.80000,-8.30038,-2.58756
49.85000,-8.30865,-2.58923
49.90000,-8.31678,-2.59116
49.95000,-8.32531,-2.59157
50.00000,-8.33371,-2.59446
50.05000,-8.34171,-2.59604
50.10000,-8.35011,-2.59707
50.15000,-8.35865,-2.59929
50.20000,-8.36678,-2.60082
50.25000,-8.37491,-2.60212
50.30000,-8.38345,-2.60335
50.35000,-8.39185,-2.60513
50.40000,-8.40011,-2.60728
50.45000,-8.40851,-2.60815
50.50000,-8.41691,-2.60948
50.55000,-8.42518,-2.61134
50.60000,-8.43371,-2.61295
50.65000,-8.44185,-2.61381
50.70000,-8.45038,-2.61485
50.75000,-8.45878,-2.61736
50.80000,-8.46678,-2.61681
50.85000,-8.47531,-2.61860
50.90000,-8.48358,-2.62043
50.95000,-8.49171,-2.62296
51.00000,-8.50011,-2.62290
51.05000,-8.50865,-2.62624
51.10000,-8.51665,-2.62781
51.15000,-8.52505,-2.62957
51.20000,-8.53371,-2.63174
51.25000,-8.54198,-2.63472
51.30000,-8.55025,-2.63599
51.35000,-8.55878,-2.63763
51.40000,-8.56718,-2.64041
51.45000,-8.57518,-2.64169
51.50000,-8.58358,-2.64440
51.55000,-8.59211,-2.64633
51.60000,-8.60025,-2.64935
51.65000,-8.60865,-2.65160
51.70000,-8.61691,-2.65426
51.75000,-8.62531,-2.65583
51.80000,-8.63358,-2.66046
51.85000,-8.64171,-2.66068
51.90000,-8.65011,-2.66441
51.95000,-8.65865,-2.66609
52.00000,-8.66691,-2.67075
52.05000,-8.67518,-2.67117
52.10000,-8.68371,-2.67490
52.15000,-8.69198,-2.67564
52.20000,-8.70011,-2.68072
52.25000,-8.70865,-2.67940
52.30000,-8.71718,-2.68378
52.35000,-8.72518,-2.68342
52.40000,-8.73345,-2.68739
52.45000,-8.74185,-2.68773
52.50000,-8.74998,-2.69177
52.55000,-8.75838,-2.69311
52.60000,-8.76691,-2.69721
52.65000,-8.77518,-2.69716
52.70000,-8.78345,-2.70274
52.75000,-8.79171,-2.70150
52.80000,-8.80011,-2.70613
52.85000,-8.80865,-2.70645
52.90000,-8.81691,-2.71192
52.95000,-8.82505,-2.71045
53.00000,-8.83371,-2.71486
53.05000,-8.84211,-2.71674
53.10000,-8.85011,-2.71913
53.15000,-8.85865,-2.71984
53.20000,-8.86704,-2.72483
53.25000,-8.87491,-2.72341
53.30000,-8.88331,-2.72703
53.35000,-8.89198,-2.72740
53.40000,-8.90011,-2.73238
53.45000,-8.90824,-2.73044
53.50000,-8.91678,-2.73489
53.55000,-8.92518,-2.73600
53.60000,-8.93358,-2.74001
53.65000,-8.94198,-2.74015
53.70000,-8.95038,-2.74355
53.75000,-8.95865,-2.74476
53.80000,-8.96704,-2.74764
53.85000,-8.97518,-2.74836
53.90000,-8.98371,-2.75134
53.95000,-8.99198,-2.75306
54.00000,-9.00011,-2.75592
54.05000,-9.00865,-2.75636
54.10000,-9.01704,-2.75985
54.15000,-9.02504,-2.76067
54.20000,-9.03331,-2.76273
54.25000,-9.04198,-2.76366
54.30000,-9.05011,-2.76672
54.35000,-9.05838,-2.76835
54.40000,-9.06704,-2.77030
54.45000,-9.07531,-2.77205
54.50000,-9.08358,-2.77366
54.55000,-9.09198,-2.77550
54.60000,-9.10038,-2.77693
54.65000,-9.10864,-2.77970
54.70000,-9.11704,-2.78001
54.75000,-9.12544,-2.78137
54.80000,-9.13371,-2.78259
54.85000,-9.14198,-2.78381
54.90000,-9.15024,-2.78548
54.95000,-9.15864,-2.78448
55.00000,-9.16691,-2.78701
55.05000,-9.17504,-2.78807
55.10000,-9.18344,-2.78893
55.15000,-9.19198,-2.79100
55.20000,-9.20024,-2.79268
55.25000,-9.20851,-2.79331
55.30000,-9.21704,-2.79421
55.35000,-9.22544,-2.79732
55.40000,-9.23344,-2.79634
55.45000,-9.24198,-2.79766
55.50000,-9.25051,-2.79979
55.55000,-9.25851,-2.80036
55.60000,-9.26678,-2.80109
55.65000,-9.27531,-2.80175
55.70000,-9.28344,-2.80313
55.75000,-9.29171,-2.80358
55.80000,-9.29998,-2.80460
55.85000,-9.30838,-2.80599
55.90000,-9.31664,-2.80617
55.95000,-9.32504,-2.80798
56.00000,-9.33344,-2.80798
56.05000,-9.34198,-2.80927
56.10000,-9.35024,-2.80827
56.15000,-9.35838,-2.80883
56.20000,-9.36704,-2.80842
56.25000,-9.37531,-2.81076
56.30000,-9.38344,-2.80960
56.35000,-9.39184,-2.81047
56.40000,-9.40038,-2.81218
56.45000,-9.40838,-2.81185
56.50000,-9.41678,-2.81411
56.55000,-9.42531,-2.81462
56.60000,-9.43344,-2.81531
56.65000,-9.44171,-2.81595
56.70000,-9.45024,-2.81556
56.75000,-9.45864,-2.81572
56.80000,-9.46678,-2.81719
56.85000,-9.47531,-2.81816
56.90000,-9.48358,-2.81922
56.95000,-9.49198,-2.81990
57.00000,-9.50038,-2.82068
57.05000,-9.50851,-2.82162
57.10000,-9.51704,-2.82218
57.15000,-9.52531,-2.82379
57.20000,-9.53331,-2.82422
57.25000,-9.54184,-2.82519
57.30000,-9.55024,-2.82751
57.35000,-9.55838,-2.82825
57.40000,-9.56678,-2.82964
57.45000,-9.57531,-2.83166
57.50000,-9.58344,-2.83250
57.55000,-9.59171,-2.83406
57.60000,-9.60038,-2.83565
57.65000,-9.60878,-2.83966
57.70000,-9.61691,-2.83945
57.75000,-9.62531,-2.84247
57.80000,-9.63371,-2.84317
57.85000,-9.64184,-2.84639
57.90000,-9.65011,-2.84612
57.95000,-9.65864,-2.84968
58.00000,-9.66704,-2.85165
58.05000,-9.67531,-2.85351
58.10000,-9.68358,-2.85507
58.15000,-9.69211,-2.85729
58.20000,-9.70024,-2.85899
58.25000,-9.70851,-2.86140
58.30000,-9.71691,-2.86091
58.35000,-9.72544,-2.86453
58.40000,-9.73358,-2.86560
58.45000,-9.74184,-2.86736
58.50000,-9.75038,-2.86878
58.55000,-9.75864,-2.87173
58.60000,-9.76678,-2.87225
58.65000,-9.77531,-2.87510
58.70000,-9.78384,-2.87695
58.75000,-9.79184,-2.87943
58.80000,-9.80011,-2.88000
58.85000,-9.80864,-2.88301
58.90000,-9.81678,-2.88316
58.95000,-9.82504,-2.88638
59.00000,-9.83344,-2.88714
59.05000,-9.84171,-2.88989
59.10000,-9.84998,-2.89009
59.15000,-9.85838,-2.89453
59.20000,-9.86678,-2.89427
59.25000,-9.87531,-2.89805
59.30000,-9.88358,-2.89991
59.35000,-9.89171,-2.90090
59.40000,-9.90024,-2.90248
59.45000,-9.90851,-2.90506
59.50000,-9.91664,-2.90649
59.55000,-9.92518,-2.90821
59.60000,-9.93371,-2.91174
59.65000,-9.94171,-2.91337
59.70000,-9.94998,-2.91340
59.75000,-9.95864,-2.91683
59.80000,-9.96664,-2.91820
59.85000,-9.97491,-2.91961
59.90000,-9.98358,-2.92141
59.95000,-9.99184,-2.92461
60.00000,-10.00011,-2.92631
60.05000,-10.00864,-2.92903
60.10000,-10.01704,-2.93065
60.15000,-10.02531,-2.93340
60.20000,-10.03358,-2.93437
60.25000,-10.04184,-2.93721
60.30000,-10.05038,-2.93792
60.35000,-10.05864,-2.94164
60.40000,-10.06678,-2.94202
60.45000,-10.07518,-2.94395
60.50000,-10.08371,-2.94600
60.55000,-10.09171,-2.94871
60.60000,-10.10011,-2.94843
60.65000,-10.10864,-2.95309
60.70000,-10.11678,-2.95318
60.75000,-10.12504,-2.95645
60.80000,-10.13358,-2.95633
60.85000,-10.14184,-2.96024
60.90000,-10.14998,-2.96081
60.95000,-10.15851,-2.96358
61.00000,-10.16704,-2.96568
61.05000,-10.17531,-2.96922
61.10000,-10.18371,-2.97116
61.15000,-10.19211,-2.97369
61.20000,-10.20037,-2.97516
61.25000,-10.20864,-2.97744
61.30000,-10.21678,-2.97859
61.35000,-10.22531,-2.98078
61.40000,-10.23358,-2.98149
61.45000,-10.24184,-2.98337
61.50000,-10.25011,-2.98392
61.55000,-10.25864,-2.98573
61.60000,-10.26691,-2.98791
61.65000,-10.27517,-2.98700
61.70000,-10.28371,-2.98818
61.75000,-10.29211,-2.98116
61.80000,-10.30011,-2.87082
61.85000,-10.30864,-2.85534
61.90000,-10.31717,-2.87194
61.95000,-10.32531,-2.86391
62.00000,-10.33358,-2.87202
62.05000,-10.34211,-2.88329
62.10000,-10.35024,-2.89280
62.15000,-10.35851,-2.90112
62.20000,-10.36691,-2.91045
62.25000,-10.37517,-2.91681
62.30000,-10.38344,-2.92543
62.35000,-10.39184,-2.93041
62.40000,-10.40011,-2.93913
62.45000,-10.40877,-2.94339
62.50000,-10.41691,-2.95172
62.55000,-10.42517,-2.95445
62.60000,-10.43371,-2.96183
62.65000,-10.44211,-2.96690
62.70000,-10.45024,-2.97167
62.75000,-10.45864,-2.97510
62.80000,-10.46704,-2.98051
62.85000,-10.47517,-2.98337
62.90000,-10.48344,-2.98755
62.95000,-10.49184,-2.99084
63.00000,-10.49997,-2.99573
63.05000,-10.50824,-2.99839
63.10000,-10.51677,-3.00312
63.15000,-10.52517,-3.00737
63.20000,-10.53344,-3.01184
63.25000,-10.54197,-3.01467
63.30000,-10.55024,-3.01876
63.35000,-10.55864,-3.02145
63.40000,-10.56704,-3.02456
63.45000,-10.57531,-3.02744
63.50000,-10.58371,-3.02954
63.55000,-10.59197,-3.03268
63.60000,-10.60011,-3.03498
63.65000,-10.60864,-3.03783
63.70000,-10.61704,-3.04083
63.75000,-10.62517,-3.04348
63.80000,-10.63344,-3.04405
63.85000,-10.64197,-3.04576
63.90000,-10.64997,-3.01510
63.95000,-10.65837,-2.82352
64.00000,-10.66717,-2.85155
64.05000,-10.67531,-2.88014
64.10001,-10.68357,-2.89530
64.15000,-10.69197,-2.91331
64.20000,-10.70051,-2.92489
64.25000,-10.70864,-2.93616
64.30000,-10.71704,-2.94492
64.35001,-10.72544,-2.95481
64.40000,-10.73371,-2.96166
64.45000,-10.74184,-2.96930
64.50000,-10.75024,-2.97619
64.55000,-10.75864,-2.98383
64.60001,-10.76704,-2.99062
64.65000,-10.77531,-2.99709
64.70000,-10.78357,-3.00241
64.75000,-10.79197,-3.00829
64.80000,-10.80011,-3.01334
64.85001,-10.80837,-3.01837
64.90000,-10.81704,-3.02418
64.95000,-10.82531,-3.02918
65.00000,-10.83357,-3.03307
65.05000,-10.84197,-3.03786
65.10001,-10.85051,-3.04384
65.15000,-10.85851,-3.04743
65.20000,-10.86677,-3.05105
65.25000,-10.87517,-3.05487
65.30000,-10.88331,-3.06005
65.35001,-10.89171,-3.06253
65.40000,-10.90011,-3.06864
65.45000,-10.90837,-3.07136
65.50000,-10.91677,-3.07644
65.55000,-10.92517,-3.07888
65.60001,-10.93344,-3.08268
65.65000,-10.94197,-3.08747
65.70001,-10.95024,-3.08974
65.75000,-10.95837,-3.09440
65.80000,-10.96704,-3.09693
65.85001,-10.97531,-3.10238
65.90000,-10.98344,-3.10372
65.95001,-10.99197,-3.10813
66.00000,-11.00037,-3.11052
66.05000,-11.00837,-3.11507
66.10001,-11.01677,-3.11624
66.15000,-11.02531,-3.12090
66.20001,-11.03344,-3.12330
66.25000,-11.04171,-3.12537
66.30000,-11.05024,-3.12770
66.35001,-11.05851,-3.13317
66.40000,-11.06677,-3.13354
66.45001,-11.07531,-3.14054
66.50000,-11.08371,-3.13984
66.55000,-11.09197,-3.14657
66.60001,-11.10037,-3.14743
66.65000,-11.10864,-3.15248
66.70001,-11.11704,-3.15340
66.75000,-11.12531,-3.15870
66.80000,-11.13344,-3.15913
66.85001,-11.14197,-3.16390
66.90000,-11.15037,-3.16544
66.95001,-11.15837,-3.16963
67.00000,-11.16677,-3.17038
67.05000,-11.17517,-3.17504
67.10001,-11.18331,-3.17591
67.15000,-11.19171,-3.18151
67.20001,-11.20051,-3.18214
67.25000,-11.20864,-3.18840
67.30000,-11.21691,-3.18895
67.35001,-11.22531,-3.19297
67.40000,-11.23384,-3.19459
67.45001,-11.24197,-3.19875
67.50000,-11.25024,-3.19914
67.55000,-11.25877,-3.20401
67.60001,-11.26691,-3.20462
67.65000,-11.27517,-3.20763
67.70001,-11.28357,-3.21077
67.75000,-11.29197,-3.21252
67.80000,-11.30024,-3.21404
67.85001,-11.30851,-3.21605
67.90000,-11.31677,-3.21552
67.95001,-11.32517,-3.21856
68.00000,-11.33357,-3.22022
68.05000,-11.34184,-3.22183
68.10001,-11.35037,-3.22365
68.15000,-11.35877,-3.22586
68.20001,-11.36677,-3.22654
68.25000,-11.37517,-3.22681
68.30000,-11.38371,-3.23038
68.35001,-11.39171,-3.22979
68.40000,-11.40011,-3.23251
68.45001,-11.40864,-3.23243
68.50000,-11.41677,-3.23420
68.55000,-11.42504,-3.23401
68.60001,-11.43357,-3.23596
68.65000,-11.44171,-3.23745
68.70001,-11.45011,-3.23869
68.75000,-11.45851,-3.23962
68.80000,-11.46691,-3.24216
68.85001,-11.47531,-3.24282
68.90000,-11.48357,-3.24344
68.95001,-11.49171,-3.24557
69.00000,-11.50037,-3.24662
69.05000,-11.50864,-3.24895
69.10001,-11.51677,-3.24967
69.15000,-11.52517,-3.25097
69.20001,-11.53371,-3.25300
69.25000,-11.54171,-3.25424
69.30000,-11.55011,-3.25153
69.35001,-11.55864,-3.25842
69.40000,-11.56664,-3.25628
69.45001,-11.57504,-3.26147
69.50000,-11.58357,-3.25886
69.55000,-11.59197,-3.26727
69.60001,-11.60011,-3.26418
69.65000,-11.60864,-3.27071
69.70001,-11.61691,-3.26701
69.75000,-11.62530,-3.27529
69.80000,-11.63357,-3.27298
69.85001,-11.64184,-3.27790
69.90000,-11.65037,-3.27780
69.95001,-11.65864,-3.28199
70.00000,-11.66677,-3.28135
70.05000,-11.67530,-3.28507
70.10001,-11.68371,-3.28590
70.15000,-11.69171,-3.28843
70.20001,-11.70010,-3.28948
70.25000,-11.70850,-3.29293
70.30000,-11.71664,-3.29455
70.35001,-11.72504,-3.29588
70.40000,-11.73371,-3.29814
70.45001,-11.74197,-3.29929
70.50000,-11.75024,-3.29916
70.55000,-11.75864,-3.30041
70.60001,-11.76704,-3.30303
70.65000,-11.77530,-3.30323
70.70001,-11.78371,-3.30557
70.75000,-11.79197,-3.30636
70.80000,-11.80024,-3.30805
70.85001,-11.80864,-3.30941
70.90000,-11.81690,-3.31118
70.95001,-11.82530,-3.31235
71.00000,-11.83344,-3.31358
71.05000,-11.84170,-3.31522
71.10001,-11.85010,-3.31555
71.15000,-11.85850,-3.31927
71.20001,-11.86677,-3.32026
71.25000,-11.87517,-3.32179
71.30000,-11.88370,-3.32367
71.35001,-11.89197,-3.32581
71.40000,-11.90010,-3.32760
71.45001,-11.90864,-3.32776
71.50000,-11.91717,-3.33122
71.55000,-11.92517,-3.33112
71.60001,-11.93357,-3.33203
71.65000,-11.94197,-3.33361
71.70001,-11.95010,-3.33429
71.75000,-11.95837,-3.33532
71.80000,-11.96677,-3.33682
71.85001,-11.97504,-3.33744
71.90000,-11.98330,-3.33855
71.95001,-11.99170,-3.34027
72.00000,-12.00010,-3.34136
72.05000,-12.00864,-3.34386
72.10001,-12.01690,-3.34554
72.15000,-12.02517,-3.34462
72.20001,-12.03370,-3.34596
72.25000,-12.04197,-3.34719
72.30000,-12.05010,-3.34667
72.35001,-12.05850,-3.34716
72.40000,-12.06704,-3.34965
72.45001,-12.07504,-3.34968
72.50000,-12.08344,-3.35047
72.55000,-12.09210,-3.35237
72.60001,-12.09997,-3.35320
72.65000,-12.10837,-3.35415
72.70001,-12.11690,-3.35488
72.75000,-12.12517,-3.35725
72.80000,-12.13344,-3.35913
72.85001,-12.14184,-3.35929
72.90000,-12.15024,-3.36283
72.95001,-12.15864,-3.36383
73.00000,-12.16704,-3.36696
73.05000,-12.17530,-3.36719
73.10001,-12.18370,-3.37018
73.15000,-12.19210,-3.37112
73.20001,-12.20010,-3.37345
73.25000,-12.20864,-3.37222
73.30000,-12.21690,-3.37675
73.35001,-12.22490,-3.37677
73.40000,-12.23344,-3.37709
73.45001,-12.24197,-3.38150
73.50000,-12.25010,-3.38116
73.55000,-12.25850,-3.38375
73.60001,-12.26704,-3.38443
73.65000,-12.27517,-3.38680
73.70001,-12.28357,-3.38770
73.75000,-12.29197,-3.38938
73.80000,-12.30037,-3.39104
73.85001,-12.30850,-3.39179
73.90000,-12.31704,-3.39341
73.95001,-12.32530,-3.39495
74.00000,-12.33357,-3.39543
74.05000,-12.34184,-3.39763
74.10001,-12.35024,-3.39735
74.15000,-12.35864,-3.40107
74.20001,-12.36690,-3.40129
74.25000,-12.37517,-3.40389
74.30000,-12.38357,-3.40478
74.35001,-12.39197,-3.40691
74.40000,-12.40024,-3.40966
74.45001,-12.40864,-3.40874
74.50000,-12.41717,-3.41314
74.55000,-12.42544,-3.41391
74.60001,-12.43357,-3.41436
74.65000,-12.44197,-3.41591
74.70001,-12.45037,-3.41773
74.75000,-12.45850,-3.41808
74.80000,-12.46677,-3.41852
74.85001,-12.47530,-3.42086
74.90000,-12.48344,-3.42151
74.95001,-12.49170,-3.42214
75.00000,-12.50010,-3.42330
75.05000,-12.50850,-3.42386
75.10001,-12.51677,-3.42531
75.15000,-12.52517,-3.42539
75.20001,-12.53344,-3.42739
75.25000,-12.54184,-3.42793
75.30000,-12.55010,-3.43000
75.35001,-12.55837,-3.42939
75.40000,-12.56690,-3.43048
75.45001,-12.57530,-3.43314
75.50000,-12.58330,-3.43206
75.55000,-12.59184,-3.43370
75.60001,-12.60037,-3.43446
75.65000,-12.60837,-3.43543
75.70001,-12.61677,-3.43453
75.75000,-12.62530,-3.43697
75.80000,-12.63344,-3.43748
75.85001,-12.64157,-3.43769
75.90000,-12.65010,-3.43733
75.95001,-12.65850,-3.43893
76.00000,-12.66677,-3.43928
76.05000,-12.67530,-3.43903
76.10001,-12.68370,-3.44105
76.15000,-12.69197,-3.44092
76.20001,-12.70037,-3.44205
76.25000,-12.70850,-3.44141
76.30000,-12.71690,-3.44076
76.35001,-12.72530,-3.44108
76.40000,-12.73344,-3.44042
76.45001,-12.74210,-3.43915
76.50000,-12.75037,-3.43972
76.55000,-12.75837,-3.43829
76.60001,-12.76677,-3.43653
76.65000,-12.77530,-3.43600
76.70001,-12.78344,-3.43611
76.75000,-12.79184,-3.43392
76.80000,-12.80037,-3.43446
76.85001,-12.80864,-3.43440
76.90000,-12.81690,-3.43404
76.95001,-12.82544,-3.43326
77.00000,-12.83384,-3.43415
77.05000,-12.84197,-3.43200
77.10001,-12.85037,-3.43210
77.15000,-12.85877,-3.43153
77.20001,-12.86704,-3.43073
77.25000,-12.87530,-3.42958
77.30000,-12.88357,-3.42954
77.35001,-12.89197,-3.42824
77.40000,-12.90024,-3.42891
77.45001,-12.90837,-3.42771
77.50000,-12.91677,-3.42537
77.55000,-12.92530,-3.42062
77.60001,-12.93357,-3.42115
77.65000,-12.94184,-3.42041
77.70001,-12.95037,-3.42203
77.75000,-12.95877,-3.42331
77.80000,-12.96690,-3.42285
77.85001,-12.97530,-3.42163
77.90000,-12.98384,-3.42367
77.95001,-12.99184,-3.42157
78.00000,-13.00010,-3.42133
78.05000,-13.00863,-3.42078
78.10001,-13.01677,-3.42127
78.15000,-13.02490,-3.42031
78.20001,-13.03343,-3.42059
78.25000,-13.04170,-3.41926
78.30000,-13.04997,-3.42064
78.35001,-13.05837,-3.42038
78.40000,-13.06677,-3.42128
78.45001,-13.07517,-3.42242
78.50000,-13.08343,-3.42391
78.55000,-13.09170,-3.42317
78.60001,-13.10023,-3.42333
78.65000,-13.10863,-3.42657
78.70001,-13.11677,-3.42579
78.75000,-13.12530,-3.42711
78.80000,-13.13370,-3.42802
78.85001,-13.14170,-3.42982
78.90000,-13.15010,-3.42921
78.95001,-13.15863,-3.43110
79.00000,-13.16663,-3.43118
79.05000,-13.17490,-3.43248
79.10001,-13.18357,-3.43246
79.15000,-13.19183,-3.43415
79.20001,-13.20010,-3.43380
79.25000,-13.20863,-3.43621
79.30000,-13.21703,-3.43634
79.35001,-13.22530,-3.43871
79.40000,-13.23370,-3.43947
79.45001,-13.24197,-3.44167
79.50000,-13.25050,-3.44190
79.55000,-13.25877,-3.44495
79.60001,-13.26677,-3.44521
79.65000,-13.27530,-3.44593
79.70001,-13.28370,-3.44748
79.75000,-13.29170,-3.44972
79.80000,-13.30023,-3.44956
79.85001,-13.30863,-3.45252
79.90000,-13.31677,-3.45312
79.95001,-13.32503,-3.45422
80.00000,-13.33370,-3.45618
80.05000,-13.34197,-3.45854
80.10001,-13.35023,-3.45934
80.15000,-13.35863,-3.46063
80.20001,-13.36703,-3.46232
80.25000,-13.37517,-3.46238
80.30000,-13.38357,-3.46276
80.35001,-13.39210,-3.46452
80.40000,-13.40037,-3.46534
80.45001,-13.40863,-3.46702
80.50001,-13.41690,-3.46775
80.55000,-13.42530,-3.46752
80.60001,-13.43357,-3.46878
80.65000,-13.44183,-3.46936
80.70001,-13.45023,-3.46931
80.75001,-13.45850,-3.46982
80.80000,-13.46677,-3.47110
80.85001,-13.47517,-3.47234
80.90000,-13.48370,-3.47301
80.95001,-13.49210,-3.47555
81.00001,-13.50010,-3.47119
81.05000,-13.50863,-3.47961
81.10001,-13.51717,-3.47221
81.15000,-13.52517,-3.47943
81.20001,-13.53343,-3.47723
81.25001,-13.54197,-3.47811
81.30000,-13.55010,-3.48066
81.35001,-13.55837,-3.48149
81.40000,-13.56677,-3.48424
81.45001,-13.57503,-3.48131
81.50001,-13.58330,-3.48673
81.55000,-13.59183,-3.48597
81.60001,-13.60010,-3.49202
81.65000,-13.60850,-3.49133
81.70001,-13.61690,-3.49742
81.75001,-13.62503,-3.49771
81.80000,-13.63370,-3.49728
81.85001,-13.64197,-3.50081
81.90000,-13.65010,-3.50474
81.95001,-13.65863,-3.50488
82.00001,-13.66703,-3.51091
82.05000,-13.67503,-3.51027
82.10001,-13.68343,-3.51226
82.15000,-13.69197,-3.51437
82.20001,-13.69997,-3.51820
82.25001,-13.70823,-3.51684
82.30000,-13.71690,-3.52373
82.35001,-13.72517,-3.52387
82.40000,-13.73343,-3.52751
82.45001,-13.74197,-3.52946
82.50001,-13.75037,-3.53099
82.55000,-13.75863,-3.53470
82.60001,-13.76703,-3.53622
82.65000,-13.77530,-3.53897
82.70001,-13.78370,-3.53998
82.75001,-13.79197,-3.54284
82.80000,-13.80010,-3.54477
82.85001,-13.80863,-3.54733
82.90000,-13.81690,-3.54861
82.95001,-13.82503,-3.55080
83.00001,-13.83343,-3.55125
83.05000,-13.84183,-3.55536
83.10001,-13.84997,-3.55619
83.15000,-13.85837,-3.55799
83.20001,-13.86703,-3.56051
83.25001,-13.87530,-3.56322
83.30000,-13.88343,-3.56208
83.35001,-13.89197,-3.56521
83.40000,-13.90037,-3.56600
83.45001,-13.90863,-3.56768
83.50001,-13.91690,-3.56572
83.55000,-13.92530,-3.57037
83.60001,-13.93357,-3.56970
83.65000,-13.94183,-3.57290
83.70001,-13.95010,-3.57391
83.75001,-13.95850,-3.57536
83.80000,-13.96690,-3.57796
83.85001,-13.97503,-3.57846
83.90000,-13.98343,-3.58081
83.95001,-13.99197,-3.58599
84.00001,-14.00010,-3.58640
84.05000,-14.00837,-3.59124
84.10001,-14.01703,-3.59099
84.15000,-14.02530,-3.59756
84.20001,-14.03343,-3.59676
84.25001,-14.04183,-3.60177
84.30000,-14.05050,-3.60325
84.35001,-14.05850,-3.60677
84.40000,-14.06690,-3.60816
84.45001,-14.07543,-3.61280
84.50001,-14.08357,-3.61424
84.55000,-14.09183,-3.61666
84.60001,-14.10010,-3.61841
84.65000,-14.10837,-3.62023
84.70001,-14.11677,-3.62231
84.75001,-14.12517,-3.62693
84.80000,-14.13343,-3.62855
84.85001,-14.14197,-3.63220
84.90000,-14.15023,-3.63443
84.95001,-14.15850,-3.63602
85.00001,-14.16703,-3.63881
85.05000,-14.17530,-3.64428
85.10001,-14.18343,-3.64415
85.15000,-14.19197,-3.64699
85.20001,-14.20037,-3.64993
85.25001,-14.20823,-3.65294
85.30000,-14.21663,-3.65373
85.35001,-14.22530,-3.65832
85.40000,-14.23343,-3.66139
85.45001,-14.24157,-3.66201
85.50001,-14.25010,-3.66508
85.55000,-14.25850,-3.66854
85.60001,-14.26676,-3.67187
85.65000,-14.27517,-3.67446
85.70001,-14.28356,-3.67749
85.75001,-14.29197,-3.68025
85.80000,-14.30037,-3.68470
85.85001,-14.30850,-3.68644
85.90000,-14.31703,-3.68916
85.95001,-14.32543,-3.69269
86.00001,-14.33343,-3.69526
86.05000,-14.34197,-3.69732
86.10001,-14.35036,-3.70203
86.15000,-14.35836,-3.70492
86.20001,-14.36676,-3.70644
86.25001,-14.37530,-3.71254
86.30000,-14.38343,-3.71407
86.35001,-14.39183,-3.71710
86.40000,-14.40050,-3.71980
86.45001,-14.40876,-3.72536
86.50001,-14.41690,-3.72541
86.55000,-14.42530,-3.73051
86.60001,-14.43370,-3.73243
86.65000,-14.44183,-3.73791
86.70001,-14.45023,-3.73885
86.75001,-14.45876,-3.74441
86.80000,-14.46690,-3.74570
86.85001,-14.47516,-3.74871
86.90000,-14.48356,-3.75097
86.95001,-14.49196,-3.75264
87.00001,-14.50023,-3.75594
87.05000,-14.50850,-3.75907
87.10001,-14.51690,-3.75991
87.15000,-14.52516,-3.76290
87.20001,-14.53343,-3.76452
87.25001,-14.54170,-3.76637
87.30000,-14.55036,-3.76893
87.35001,-14.55876,-3.77202
87.40000,-14.56676,-3.77284
87.45001,-14.57530,-3.77496
87.50001,-14.58383,-3.77866
87.55000,-14.59196,-3.78044
87.60001,-14.60023,-3.78322
87.65000,-14.60863,-3.78532
87.70001,-14.61676,-3.78826
87.75001,-14.62516,-3.79025
87.80000,-14.63343,-3.79295
87.85001,-14.64170,-3.79445
87.90000,-14.64996,-3.79805
87.95001,-14.65836,-3.80254
88.00001,-14.66690,-3.80452
88.05000,-14.67543,-3.80975
88.10001,-14.68356,-3.81324
88.15000,-14.69170,-3.81468
88.20001,-14.70023,-3.81671
88.25001,-14.70863,-3.82141
88.30000,-14.71663,-3.82385
88.35001,-14.72516,-3.82525
88.40000,-14.73383,-3.83040
88.45001,-14.74183,-3.83358
88.50001,-14.75010,-3.83451
88.55000,-14.75863,-3.83797
88.60001,-14.76663,-3.84197
88.65000,-14.77490,-3.84280
88.70001,-14.78343,-3.84592
88.75001,-14.79170,-3.84802
88.80000,-14.80010,-3.85282
88.85001,-14.80850,-3.85491
88.90000,-14.81690,-3.86031
88.95001,-14.82543,-3.86079
89.00001,-14.83370,-3.86426
89.05000,-14.84196,-3.86425
89.10001,-14.85036,-3.86765
89.15000,-14.85876,-3.87203
89.20001,-14.86676,-3.87563
89.25001,-14.87530,-3.87617
89.30000,-14.88370,-3.88101
89.35001,-14.89170,-3.88389
89.40000,-14.90010,-3.88568
89.45001,-14.90863,-3.88804
89.50001,-14.91676,-3.89375
89.55000,-14.92503,-3.89417
89.60001,-14.93370,-3.89912
89.65000,-14.94196,-3.90257
89.70001,-14.95010,-3.90505
89.75001,-14.95863,-3.90830
89.80000,-14.96716,-3.91270
89.85001,-14.97530,-3.91587
89.90000,-14.98370,-3.91925
89.95001,-14.99210,-3.92388
90.00001,-15.00036,-3.92785
90.05000,-15.00863,-3.93249
90.10001,-15.01690,-3.93606
90.15000,-15.02530,-3.93936
90.20001,-15.03356,-3.94439
90.25001,-15.04170,-3.95011
90.30000,-15.05010,-3.95252
90.35001,-15.05863,-3.95920
90.36201,-15.06063,-3.96060
