Time,Extension,Load
(sec),(mm),(N)
0.00000,-0.00027,-0.16152
0.05000,-0.00173,-0.16453
0.10000,-0.00693,-0.16588
0.15000,-0.01613,-0.18370
0.20000,-0.02667,-0.19498
0.25000,-0.03653,-0.21538
0.30000,-0.04627,-0.22448
0.35000,-0.05587,-0.24008
0.40000,-0.06467,-0.25282
0.45000,-0.07360,-0.26206
0.50000,-0.08253,-0.27406
0.55000,-0.09093,-0.28365
0.60000,-0.09933,-0.29431
0.65000,-0.10813,-0.30520
0.70000,-0.11627,-0.31238
0.75000,-0.12467,-0.32622
0.80000,-0.13333,-0.33208
0.85000,-0.14173,-0.34591
0.90000,-0.14987,-0.35079
0.95000,-0.15853,-0.36521
1.00000,-0.16693,-0.37115
1.05000,-0.17533,-0.38449
1.10000,-0.18373,-0.38902
1.15000,-0.19213,-0.40312
1.20000,-0.20040,-0.41054
1.25000,-0.20880,-0.42074
1.30000,-0.21680,-0.42780
1.35000,-0.22533,-0.44065
1.40000,-0.23360,-0.44633
1.45000,-0.24173,-0.45922
1.50000,-0.25013,-0.46421
1.55000,-0.25853,-0.47838
1.60000,-0.26653,-0.48234
1.65000,-0.27493,-0.49658
1.70000,-0.28373,-0.50280
1.75000,-0.29200,-0.51826
1.80000,-0.30013,-0.52154
1.85000,-0.30867,-0.53469
1.90000,-0.31693,-0.54256
1.95000,-0.32507,-0.55612
2.00000,-0.33360,-0.56258
2.05000,-0.34200,-0.57445
2.10000,-0.35027,-0.58352
2.15000,-0.35853,-0.59498
2.20000,-0.36680,-0.60167
2.25000,-0.37520,-0.61599
2.30000,-0.38333,-0.62273
2.35000,-0.39160,-0.63546
2.40000,-0.40013,-0.64471
2.45000,-0.40853,-0.65578
2.50000,-0.41680,-0.66721
2.55000,-0.42507,-0.67593
2.60000,-0.43373,-0.68722
2.65000,-0.44200,-0.69888
2.70000,-0.45027,-0.71001
2.75000,-0.45867,-0.71889
2.80000,-0.46720,-0.73091
2.85000,-0.47520,-0.74093
2.90000,-0.48347,-0.75217
2.95000,-0.49200,-0.76270
3.00000,-0.50000,-0.77286
3.05000,-0.50827,-0.78474
3.10000,-0.51680,-0.79467
3.15000,-0.52507,-0.80726
3.20000,-0.53333,-0.81628
3.25000,-0.54187,-0.83028
3.30000,-0.55013,-0.83827
3.35000,-0.55853,-0.85221
3.40000,-0.56693,-0.86067
3.45000,-0.57520,-0.87441
3.50000,-0.58373,-0.88234
3.55000,-0.59200,-0.89700
3.60000,-0.60000,-0.90360
3.65000,-0.60867,-0.91888
3.70000,-0.61707,-0.92731
3.75000,-0.62507,-0.94095
3.80000,-0.63347,-0.94718
3.85000,-0.64213,-0.96600
3.90000,-0.65013,-0.97034
3.95000,-0.65827,-0.98953
4.00000,-0.66707,-0.99115
4.05000,-0.67520,-1.01313
4.10000,-0.68333,-1.01648
4.15000,-0.69186,-1.03387
4.20000,-0.70026,-1.04107
4.25000,-0.70853,-1.05751
4.30000,-0.71706,-1.06792
4.35000,-0.72520,-1.07897
4.40000,-0.73373,-1.09333
4.45000,-0.74213,-1.10304
4.50000,-0.75000,-1.11791
4.55000,-0.75866,-1.12614
4.60000,-0.76706,-1.14182
4.65000,-0.77506,-1.15203
4.70000,-0.78346,-1.16394
4.75000,-0.79186,-1.17628
4.80000,-0.79986,-1.18965
4.85000,-0.80826,-1.19950
4.90000,-0.81706,-1.21155
4.95000,-0.82520,-1.22654
5.00000,-0.83346,-1.23583
5.05000,-0.84213,-1.24999
5.10000,-0.85040,-1.26337
5.15000,-0.85853,-1.27210
5.20000,-0.86693,-1.28748
5.25000,-0.87533,-1.29807
5.30000,-0.88346,-1.31045
5.35000,-0.89186,-1.31974
5.40000,-0.90013,-1.33746
5.45000,-0.90853,-1.34385
5.50000,-0.91680,-1.36006
5.55000,-0.92480,-1.37126
5.60000,-0.93333,-1.37965
5.65000,-0.94186,-1.39575
5.70000,-0.95013,-1.40455
5.75000,-0.95853,-1.42039
5.80000,-0.96720,-1.43163
5.85000,-0.97546,-1.44398
5.90000,-0.98346,-1.45432
5.95000,-0.99200,-1.46523
6.00000,-1.00040,-1.48076
6.05000,-1.00853,-1.49049
6.10000,-1.01680,-1.50247
6.15000,-1.02533,-1.51508
6.20000,-1.03333,-1.52430
6.25000,-1.04173,-1.53791
6.30000,-1.05026,-1.54907
6.35000,-1.05840,-1.56364
6.40000,-1.06666,-1.57143
6.45000,-1.07520,-1.58679
6.50000,-1.08360,-1.59549
6.55000,-1.09186,-1.60883
6.60000,-1.10013,-1.62143
6.65000,-1.10840,-1.63116
6.70000,-1.11693,-1.64446
6.75000,-1.12546,-1.65676
6.80000,-1.13346,-1.66711
6.85000,-1.14186,-1.67886
6.90000,-1.15040,-1.69197
6.95000,-1.15840,-1.70353
7.00000,-1.16666,-1.71408
7.05000,-1.17533,-1.72559
7.10000,-1.18333,-1.73864
7.15000,-1.19160,-1.74851
7.20000,-1.20040,-1.76112
7.25000,-1.20853,-1.77498
7.30000,-1.21680,-1.78303
7.35000,-1.22533,-1.79745
7.40000,-1.23360,-1.80717
7.45000,-1.24200,-1.82102
7.50000,-1.25040,-1.83153
7.55000,-1.25866,-1.84385
7.60000,-1.26693,-1.85311
7.65000,-1.27546,-1.86752
7.70000,-1.28346,-1.87641
7.75000,-1.29200,-1.88908
7.80000,-1.30040,-1.90091
7.85000,-1.30840,-1.91189
7.90000,-1.31680,-1.92097
7.95000,-1.32533,-1.93567
8.00000,-1.33346,-1.94441
8.05000,-1.34186,-1.95986
8.10000,-1.35053,-1.96755
8.15000,-1.35853,-1.98078
8.20000,-1.36680,-1.99038
8.25000,-1.37533,-2.00237
8.30000,-1.38360,-2.01550
8.35000,-1.39200,-2.02657
8.40000,-1.40040,-2.03489
8.45000,-1.40880,-2.04977
8.50000,-1.41693,-2.05757
8.55000,-1.42520,-2.07041
8.60000,-1.43360,-2.08164
8.65000,-1.44186,-2.09172
8.70000,-1.45013,-2.10311
8.75000,-1.45840,-2.11403
8.80000,-1.46680,-2.12415
8.85000,-1.47520,-2.13644
8.90000,-1.48346,-2.14709
8.95000,-1.49173,-2.15833
9.00000,-1.50040,-2.16961
9.05000,-1.50866,-2.17975
9.10000,-1.51680,-2.19041
9.15000,-1.52533,-2.20245
9.20000,-1.53373,-2.21308
9.25000,-1.54173,-2.22338
9.30000,-1.55000,-2.23310
9.35000,-1.55866,-2.24459
9.40000,-1.56680,-2.25520
9.45000,-1.57506,-2.26600
9.50000,-1.58346,-2.27654
9.55000,-1.59160,-2.28663
9.60000,-1.59986,-2.29588
9.65000,-1.60853,-2.30794
9.70000,-1.61693,-2.31955
9.75000,-1.62533,-2.32871
9.80000,-1.63373,-2.34196
9.85000,-1.64186,-2.35037
9.90000,-1.65040,-2.36094
9.95000,-1.65880,-2.37235
10.00000,-1.66680,-2.38233
10.05000,-1.67520,-2.39155
10.10000,-1.68373,-2.40380
10.15000,-1.69173,-2.41161
10.20000,-1.70013,-2.42321
10.25000,-1.70880,-2.43207
10.30000,-1.71666,-2.44537
10.35000,-1.72493,-2.45197
10.40000,-1.73360,-2.46524
10.45000,-1.74186,-2.47276
10.50000,-1.75000,-2.48561
10.55000,-1.75866,-2.49368
10.60000,-1.76693,-2.50639
10.65000,-1.77520,-2.51390
10.70000,-1.78360,-2.52591
10.75000,-1.79200,-2.53346
10.80000,-1.80040,-2.54723
10.85000,-1.80880,-2.55420
10.90000,-1.81680,-2.56592
10.95000,-1.82533,-2.57330
11.00000,-1.83373,-2.58608
11.05000,-1.84173,-2.59374
11.10000,-1.85013,-2.60514
11.15000,-1.85853,-2.61376
11.20000,-1.86666,-2.62476
11.25000,-1.87506,-2.63238
11.30000,-1.88360,-2.64488
11.35000,-1.89186,-2.65230
11.40000,-1.90013,-2.66460
11.45000,-1.90866,-2.67226
11.50000,-1.91706,-2.68463
11.55000,-1.92520,-2.69103
11.60000,-1.93373,-2.70315
11.65000,-1.94213,-2.71113
11.70000,-1.95026,-2.72188
11.75000,-1.95866,-2.72850
11.80000,-1.96693,-2.73995
11.85000,-1.97520,-2.74697
11.90000,-1.98346,-2.75803
11.95000,-1.99173,-2.76545
12.00000,-2.00013,-2.77633
12.05000,-2.00853,-2.78431
12.10000,-2.01693,-2.79455
12.15000,-2.02520,-2.80194
12.20000,-2.03359,-2.81270
12.25000,-2.04200,-2.82068
12.30000,-2.05013,-2.82995
12.35000,-2.05866,-2.83928
12.40000,-2.06706,-2.84864
12.45000,-2.07520,-2.85660
12.50000,-2.08346,-2.86493
12.55000,-2.09199,-2.87499
12.60000,-2.10013,-2.88357
12.65000,-2.10839,-2.89093
12.70000,-2.11679,-2.90024
12.75000,-2.12506,-2.90773
12.80000,-2.13333,-2.91831
12.85000,-2.14186,-2.92556
12.90000,-2.15026,-2.93516
12.95000,-2.15853,-2.94258
13.00000,-2.16693,-2.95162
13.05000,-2.17519,-2.95968
13.10000,-2.18373,-2.96795
13.15000,-2.19213,-2.97745
13.20000,-2.20026,-2.98429
13.25000,-2.20853,-2.99170
13.30000,-2.21706,-2.72154
13.35000,-2.22506,-2.54189
13.40000,-2.23346,-2.59618
13.45000,-2.24199,-2.63430
13.50000,-2.24999,-2.66310
13.55000,-2.25813,-2.68743
13.60000,-2.26679,-2.70828
13.65000,-2.27519,-2.73504
13.70000,-2.28346,-2.75208
13.75000,-2.29213,-2.77597
13.80000,-2.30053,-2.79166
13.85000,-2.30879,-2.81209
13.90000,-2.31719,-2.82736
13.95000,-2.32546,-2.84491
14.00000,-2.33373,-2.85926
14.05000,-2.34213,-2.87544
14.10000,-2.35013,-2.88860
14.15000,-2.35866,-2.90404
14.20000,-2.36693,-2.91624
14.25000,-2.37506,-2.93093
14.30000,-2.38346,-2.94265
14.35000,-2.39199,-2.95672
14.40000,-2.39999,-2.96831
14.45000,-2.40839,-2.97850
14.50000,-2.41706,-2.99150
14.55000,-2.42519,-3.00371
14.60000,-2.43346,-3.01488
14.65000,-2.44199,-3.02477
14.70000,-2.45026,-3.03597
14.75000,-2.45839,-3.04430
14.80000,-2.46679,-3.05551
14.85000,-2.47519,-3.06551
14.90000,-2.48319,-3.07491
14.95000,-2.49146,-3.08373
15.00000,-2.49999,-3.09427
15.05000,-2.50839,-3.10232
15.10000,-2.51666,-3.11107
15.15000,-2.52493,-3.12032
15.20000,-2.53333,-3.12758
15.25000,-2.54186,-3.13850
15.30000,-2.54999,-3.14604
15.35000,-2.55839,-3.15578
15.40000,-2.56706,-3.16313
15.45000,-2.57533,-3.17299
15.50000,-2.58346,-3.17887
15.55000,-2.59199,-3.18802
15.60000,-2.60053,-3.19530
15.65000,-2.60853,-3.20298
15.70000,-2.61679,-3.20921
15.75000,-2.62533,-3.21818
15.80000,-2.63346,-3.22313
15.85000,-2.64173,-3.23124
15.90000,-2.65026,-3.23831
15.95000,-2.65839,-3.24624
16.00000,-2.66666,-3.25198
16.05000,-2.67519,-3.26031
16.10000,-2.68359,-3.26710
16.15000,-2.69199,-3.27460
16.20000,-2.70026,-3.28244
16.25000,-2.70853,-3.28866
16.30000,-2.71719,-3.29621
16.35000,-2.72546,-3.30335
16.40000,-2.73359,-3.30987
16.45000,-2.74199,-3.31393
16.50000,-2.75039,-3.32288
16.55000,-2.75839,-3.32660
16.60000,-2.76679,-3.33430
16.65000,-2.77546,-3.33846
16.70000,-2.78333,-3.34471
16.75000,-2.79146,-3.34914
16.80000,-2.80026,-3.35622
16.85000,-2.80853,-3.36353
16.90000,-2.81679,-3.36455
16.95000,-2.82533,-3.37162
17.00000,-2.83373,-3.37491
17.05000,-2.84199,-3.38307
17.10000,-2.85039,-3.38647
17.15000,-2.85879,-3.39364
17.20000,-2.86706,-3.39455
17.25000,-2.87533,-3.40349
17.30000,-2.88333,-3.40459
17.35000,-2.89186,-3.41385
17.40000,-2.90026,-3.41554
17.45000,-2.90839,-3.42524
17.50000,-2.91666,-3.42491
17.55000,-2.92506,-3.43655
17.60000,-2.93319,-3.43681
17.65000,-2.94159,-3.44971
17.70000,-2.95039,-3.45031
17.75000,-2.95866,-3.46431
17.80000,-2.96693,-3.46274
17.85000,-2.97546,-3.47569
17.90000,-2.98373,-3.47649
17.95000,-2.99186,-3.48949
18.00000,-3.00039,-3.49052
18.05000,-3.00879,-3.50304
18.10000,-3.01693,-3.50333
18.15000,-3.02519,-3.51597
18.20000,-3.03346,-3.51783
18.25000,-3.04186,-3.53098
18.30000,-3.05026,-3.53103
18.35000,-3.05839,-3.54315
18.40000,-3.06679,-3.54337
18.45000,-3.07519,-3.55705
18.50000,-3.08346,-3.55944
18.55000,-3.09186,-3.56828
18.60000,-3.10039,-3.57273
18.65000,-3.10866,-3.58196
18.70000,-3.11679,-3.58400
18.75000,-3.12533,-3.59584
18.80000,-3.13386,-3.59871
18.85000,-3.14186,-3.60727
18.90000,-3.15013,-3.61040
18.95000,-3.15879,-3.61965
19.00000,-3.16679,-3.62412
19.05000,-3.17506,-3.63170
19.10000,-3.18346,-3.63504
19.15000,-3.19173,-3.64428
19.20000,-3.19999,-3.64770
19.25000,-3.20853,-3.65669
19.30000,-3.21693,-3.66170
19.35000,-3.22533,-3.66879
19.40000,-3.23359,-3.67296
19.45000,-3.24199,-3.68032
19.50000,-3.25039,-3.68638
19.55000,-3.25866,-3.69310
19.60000,-3.26693,-3.69850
19.65000,-3.27546,-3.70271
19.70000,-3.28373,-3.70982
19.75000,-3.29173,-3.71475
19.80000,-3.30013,-3.71984
19.85000,-3.30866,-3.72645
19.90000,-3.31679,-3.73040
19.95000,-3.32493,-3.73735
20.00000,-3.33359,-3.74155
20.05000,-3.34186,-3.74980
20.10000,-3.35013,-3.75403
20.15000,-3.35866,-3.76014
20.20000,-3.36706,-3.76578
20.25000,-3.37533,-3.77056
20.30000,-3.38373,-3.77584
20.35000,-3.39199,-3.78189
20.40000,-3.40026,-3.78655
20.45000,-3.40866,-3.79169
20.50000,-3.41666,-3.79564
20.55000,-3.42519,-3.80174
20.60000,-3.43359,-3.80521
20.65000,-3.44172,-3.81268
20.70000,-3.45012,-3.81532
20.75000,-3.45852,-3.82226
20.80000,-3.46666,-3.82646
20.85000,-3.47506,-3.83167
20.90000,-3.48372,-3.83568
20.95000,-3.49186,-3.84334
21.00000,-3.49999,-3.84535
21.05000,-3.50866,-3.85266
21.10000,-3.51706,-3.85639
21.15000,-3.52519,-3.86275
21.20000,-3.53359,-3.86569
21.25000,-3.54199,-3.87213
21.30000,-3.55026,-3.87542
21.35000,-3.55852,-3.88124
21.40000,-3.56692,-3.88454
21.45000,-3.57519,-3.89034
21.50000,-3.58346,-3.89346
21.55000,-3.59159,-3.89885
21.60000,-3.60012,-3.90196
21.65000,-3.60852,-3.90762
21.70000,-3.61679,-3.91111
21.75000,-3.62519,-3.91653
21.80000,-3.63372,-3.91886
21.85000,-3.64212,-3.92627
21.90000,-3.65012,-3.92762
21.95000,-3.65866,-3.93396
22.00000,-3.66719,-3.93613
22.05000,-3.67519,-3.94262
22.10000,-3.68346,-3.94359
22.15000,-3.69199,-3.95104
22.20000,-3.70012,-3.95204
22.25000,-3.70839,-3.95869
22.30000,-3.71679,-3.96049
22.35000,-3.72506,-3.96599
22.40000,-3.73332,-3.96846
22.45000,-3.74186,-3.97364
22.50000,-3.75026,-3.97781
22.55000,-3.75866,-3.98214
22.60000,-3.76692,-3.98559
22.65000,-3.77519,-3.98962
22.70000,-3.78372,-3.99312
22.75000,-3.79212,-3.99660
22.80000,-3.80012,-4.00177
22.85000,-3.80866,-4.00420
22.90000,-3.81706,-4.00909
22.95000,-3.82506,-4.01269
23.00000,-3.83332,-4.01593
23.05000,-3.84199,-4.01980
23.10000,-3.84999,-4.02535
23.15000,-3.85826,-4.02714
23.20000,-3.86679,-4.03191
23.25000,-3.87506,-4.03494
23.30000,-3.88332,-4.03893
23.35000,-3.89186,-4.04104
23.40000,-3.90026,-4.04640
23.45000,-3.90852,-4.04814
23.50000,-3.91692,-4.05261
23.55000,-3.92519,-4.05633
23.60000,-3.93372,-4.05850
23.65000,-3.94212,-4.06408
23.70000,-3.95012,-4.06529
23.75000,-3.95866,-4.06917
23.80000,-3.96692,-4.07013
23.85000,-3.97506,-4.07560
23.90000,-3.98346,-4.07686
23.95000,-3.99199,-4.08201
24.00000,-4.00012,-4.08370
24.05000,-4.00839,-4.08773
24.10000,-4.01706,-4.09060
24.15000,-4.02532,-4.09383
24.20000,-4.03359,-4.09552
24.25000,-4.04199,-4.09985
24.30000,-4.05052,-4.10241
24.35000,-4.05866,-4.10533
24.40000,-4.06706,-4.10725
24.45000,-4.07546,-4.11191
24.50000,-4.08359,-4.11189
24.55000,-4.09186,-4.11572
24.60000,-4.10026,-4.11824
24.65000,-4.10852,-4.12152
24.70000,-4.11692,-4.12397
24.75000,-4.12506,-4.12606
24.80000,-4.13346,-4.13029
24.85000,-4.14199,-4.13132
24.90000,-4.15026,-4.13637
24.95000,-4.15839,-4.13609
25.00000,-4.16692,-4.14056
25.05000,-4.17532,-4.14309
25.10000,-4.18332,-4.14631
25.15000,-4.19186,-4.14762
25.20000,-4.20039,-4.15352
25.25000,-4.20852,-4.15317
25.30000,-4.21679,-4.15744
25.35000,-4.22532,-4.15888
25.40000,-4.23346,-4.16275
25.45000,-4.24159,-4.16478
25.50000,-4.24999,-4.16698
25.55000,-4.25826,-4.16968
25.60000,-4.26666,-4.17364
25.65000,-4.27519,-4.17383
25.70000,-4.28346,-4.17921
25.75000,-4.29199,-4.18051
25.80000,-4.30039,-4.18357
25.85000,-4.30866,-4.18499
25.90000,-4.31706,-4.18779
25.95000,-4.32546,-4.19093
26.00000,-4.33359,-4.19073
26.05000,-4.34186,-4.19395
26.10000,-4.35039,-4.19421
26.15000,-4.35839,-4.20116
26.20000,-4.36679,-4.19761
26.25000,-4.37532,-4.20538
26.30000,-4.38332,-4.20455
26.35000,-4.39159,-4.20760
26.40000,-4.40012,-4.20854
26.45000,-4.40852,-4.21160
26.50000,-4.41679,-4.21356
26.55000,-4.42532,-4.21560
26.60000,-4.43359,-4.21812
26.65000,-4.44199,-4.22109
26.70000,-4.45026,-4.22213
26.75000,-4.45866,-4.22486
26.80000,-4.46719,-4.22476
26.85000,-4.47546,-4.22910
26.90000,-4.48332,-4.22761
26.95000,-4.49199,-4.23068
27.00000,-4.50026,-4.23331
27.05000,-4.50826,-4.23385
27.10000,-4.51679,-4.23553
27.15000,-4.52519,-4.23593
27.20000,-4.53346,-4.24058
27.25000,-4.54186,-4.23969
27.30000,-4.55039,-4.24385
27.35000,-4.55866,-4.24640
27.40000,-4.56666,-4.24750
27.45000,-4.57532,-4.24869
27.50000,-4.58372,-4.25174
27.55000,-4.59186,-4.25211
27.60000,-4.60026,-4.25484
27.65000,-4.60879,-4.25597
27.70000,-4.61692,-4.25723
27.75000,-4.62519,-4.25809
27.80000,-4.63346,-4.25886
27.85000,-4.64199,-4.25982
27.90000,-4.65012,-4.26304
27.95000,-4.65826,-4.26391
28.00000,-4.66679,-4.26433
28.05000,-4.67519,-4.26832
28.10000,-4.68346,-4.26800
28.15000,-4.69172,-4.26939
28.20000,-4.70026,-4.27089
28.25000,-4.70866,-4.27252
28.30000,-4.71679,-4.27441
28.35000,-4.72532,-4.27343
28.40000,-4.73386,-4.27632
28.45000,-4.74185,-4.27718
28.50000,-4.75026,-4.27881
28.55000,-4.75866,-4.27875
28.60000,-4.76666,-4.28078
28.65000,-4.77492,-4.28077
28.70000,-4.78346,-4.28383
28.75000,-4.79172,-4.28298
28.80000,-4.79999,-4.28648
28.85000,-4.80852,-4.28719
28.90000,-4.81692,-4.29021
28.95000,-4.82532,-4.29054
29.00000,-4.83359,-4.29374
29.05000,-4.84185,-4.29336
29.10000,-4.85039,-4.29521
29.15000,-4.85865,-4.29758
29.20000,-4.86679,-4.29733
29.25000,-4.87532,-4.29891
29.30000,-4.88372,-4.30123
29.35000,-4.89172,-4.30354
29.40000,-4.90012,-4.30368
29.45000,-4.90865,-4.30614
29.50000,-4.91652,-4.30578
29.55000,-4.92479,-4.30855
29.60000,-4.93345,-4.30942
29.65000,-4.94199,-4.31405
29.70000,-4.95025,-4.31335
29.75000,-4.95879,-4.31652
29.80000,-4.96705,-4.31540
29.85000,-4.97532,-4.31781
29.90000,-4.98372,-4.31962
29.95000,-4.99199,-4.32137
30.00000,-5.00039,-4.32289
30.05000,-5.00865,-4.32453
30.10000,-5.01679,-4.32605
30.15000,-5.02545,-4.32612
30.20000,-5.03372,-4.32941
30.25000,-5.04185,-4.32982
30.30000,-5.05012,-4.33089
30.35000,-5.05852,-4.33235
30.40000,-5.06665,-4.33405
30.45000,-5.07505,-4.33500
30.50000,-5.08372,-4.33719
30.55000,-5.09199,-4.33907
30.60000,-5.10012,-4.33977
30.65000,-5.10865,-4.34052
30.70000,-5.11705,-4.34268
30.75000,-5.12519,-4.34326
30.80000,-5.13359,-4.34533
30.85000,-5.14199,-4.34597
30.90000,-5.15025,-4.34694
30.95000,-5.15839,-4.34783
31.00000,-5.16665,-4.34870
31.05000,-5.17519,-4.34942
31.10000,-5.18345,-4.35072
31.15000,-5.19159,-4.35120
31.20000,-5.19999,-4.35080
31.25000,-5.20865,-4.35262
31.30000,-5.21692,-4.35364
31.35000,-5.22505,-4.35321
31.40000,-5.23372,-4.35402
31.45000,-5.24199,-4.35536
31.50000,-5.25012,-4.35424
31.55000,-5.25852,-4.35571
31.60000,-5.26705,-4.35675
31.65000,-5.27519,-4.35792
31.70000,-5.28332,-4.35726
31.75000,-5.29185,-4.35960
31.80000,-5.30012,-4.36005
31.85000,-5.30839,-4.36157
31.90000,-5.31692,-4.36238
31.95000,-5.32505,-4.36419
32.00000,-5.33332,-4.36404
32.05000,-5.34172,-4.36672
32.10000,-5.35012,-4.36608
32.15000,-5.35852,-4.36886
32.20000,-5.36692,-4.36931
32.25000,-5.37519,-4.37058
32.30000,-5.38372,-4.37142
32.35000,-5.39212,-4.37324
32.40000,-5.40025,-4.37409
32.45000,-5.40865,-4.37320
32.50000,-5.41705,-4.37578
32.55000,-5.42505,-4.37557
32.60000,-5.43345,-4.37605
32.65000,-5.44199,-4.37747
32.70000,-5.45012,-4.37865
32.75000,-5.45825,-4.37829
32.80000,-5.46692,-4.38005
32.85000,-5.47532,-4.38110
32.90000,-5.48345,-4.38128
32.95000,-5.49199,-4.38252
33.00000,-5.50039,-4.38324
33.05000,-5.50865,-4.38384
33.10000,-5.51705,-4.38380
33.15000,-5.52532,-4.38500
33.20000,-5.53372,-4.38511
33.25000,-5.54212,-4.38703
33.30000,-5.55025,-4.38467
33.35000,-5.55865,-4.38652
33.40000,-5.56705,-4.38489
33.45000,-5.57505,-4.38874
33.50000,-5.58332,-4.38304
33.55000,-5.59185,-4.38884
33.60000,-5.60012,-4.38607
33.65000,-5.60852,-4.38952
33.70000,-5.61705,-4.38812
33.75000,-5.62532,-4.39093
33.80000,-5.63359,-4.38958
33.85000,-5.64212,-4.39082
33.90000,-5.65039,-4.39080
33.95000,-5.65865,-4.39160
34.00000,-5.66705,-4.39065
34.05000,-5.67532,-4.39228
34.10000,-5.68359,-4.39143
34.15000,-5.69185,-4.39252
34.20000,-5.70025,-4.39235
34.25000,-5.70852,-4.39406
34.30000,-5.71665,-4.39384
34.35000,-5.72479,-4.39532
34.40000,-5.73332,-4.39387
34.45000,-5.74185,-4.39560
34.50000,-5.75012,-4.39734
34.55000,-5.75852,-4.39829
34.60000,-5.76705,-4.39869
34.65000,-5.77532,-4.40101
34.70000,-5.78345,-4.39953
34.75000,-5.79199,-4.39995
34.80000,-5.80039,-4.40320
34.85000,-5.80839,-4.40089
34.90000,-5.81679,-4.40195
34.95000,-5.82532,-4.40143
35.00000,-5.83332,-4.40254
35.05000,-5.84172,-4.40167
35.10000,-5.85012,-4.40232
35.15000,-5.85839,-4.40261
35.20000,-5.86665,-4.40300
35.25000,-5.87519,-4.40346
35.30000,-5.88372,-4.40231
35.35000,-5.89212,-4.40402
35.40000,-5.90039,-4.40515
35.45000,-5.90865,-4.40430
35.50000,-5.91705,-4.40435
35.55000,-5.92532,-4.40326
35.60000,-5.93345,-4.40573
35.65000,-5.94199,-4.40335
35.70000,-5.95039,-4.40653
35.75000,-5.95839,-4.40443
35.80000,-5.96679,-4.40400
35.85000,-5.97532,-4.40575
35.90000,-5.98345,-4.40571
35.95000,-5.99159,-4.40496
36.00000,-6.00025,-4.40862
36.05000,-6.00839,-4.40331
36.10000,-6.01665,-4.41123
36.15000,-6.02519,-4.40476
36.20000,-6.03372,-4.41091
36.25000,-6.04199,-4.40588
36.30000,-6.05052,-4.41189
36.35000,-6.05865,-4.40494
36.40000,-6.06692,-4.41181
36.45000,-6.07532,-4.40427
36.50000,-6.08345,-4.41012
36.55000,-6.09199,-4.40504
36.60000,-6.10025,-4.40821
36.65000,-6.10839,-4.40648
36.70000,-6.11679,-4.40307
36.75000,-6.12519,-4.40669
36.80000,-6.13332,-4.40151
36.85000,-6.14172,-4.40711
36.90000,-6.15038,-4.39992
36.95000,-6.15852,-4.40804
37.00000,-6.16665,-4.39615
37.05000,-6.17532,-4.40676
37.10000,-6.18372,-4.39638
37.15000,-6.19185,-4.40423
37.20000,-6.20025,-4.39490
37.25000,-6.20865,-4.40399
37.30000,-6.21692,-4.39064
37.35000,-6.22505,-4.40405
37.40000,-6.23345,-4.38837
37.45000,-6.24185,-4.40010
37.50000,-6.25012,-4.38691
37.55000,-6.25825,-4.39651
37.60000,-6.26678,-4.38701
37.65000,-6.27532,-4.39275
37.70000,-6.28358,-4.38808
37.75000,-6.29185,-4.39086
37.80000,-6.30038,-4.38621
37.85000,-6.30865,-4.38866
37.90000,-6.31692,-4.38498
37.95000,-6.32532,-4.38517
38.00000,-6.33385,-4.38429
38.05000,-6.34185,-4.38150
38.10000,-6.35012,-4.37976
38.15000,-6.35865,-4.37936
38.20000,-6.36665,-4.37631
38.25000,-6.37492,-4.37484
38.30000,-6.38345,-4.37357
38.35000,-6.39158,-4.37227
38.40000,-6.39998,-4.37188
38.45000,-6.40838,-4.37132
38.50000,-6.41692,-4.37160
38.55000,-6.42532,-4.37055
38.60000,-6.43358,-4.37188
38.65000,-6.44185,-4.36810
38.70000,-6.45038,-4.37100
38.75000,-6.45878,-4.36783
38.80000,-6.46678,-4.36760
38.85000,-6.47532,-4.36428
38.90000,-6.48372,-4.36345
38.95000,-6.49172,-4.36003
39.00000,-6.49998,-4.35976
39.05000,-6.50865,-4.35629
39.10000,-6.51665,-4.35883
39.15000,-6.52492,-4.35783
39.20000,-6.53358,-4.35745
39.25000,-6.54185,-4.35527
39.30000,-6.55012,-4.35745
39.35000,-6.55865,-4.35455
39.40000,-6.56692,-4.35706
39.45000,-6.57518,-4.35386
39.50000,-6.58358,-4.35640
39.55000,-6.59185,-4.35510
39.60000,-6.60025,-4.35766
39.65000,-6.60865,-4.35430
39.70000,-6.61665,-4.35939
39.75000,-6.62518,-4.35434
39.80000,-6.63358,-4.35925
39.85000,-6.64158,-4.35719
39.90000,-6.64998,-4.35750
39.95000,-6.65865,-4.35754
40.00000,-6.66678,-4.36083
40.05000,-6.67518,-4.35878
40.10000,-6.68372,-4.36226
40.15000,-6.69198,-4.36056
40.20000,-6.70025,-4.36174
40.25000,-6.70878,-4.36274
40.30000,-6.71718,-4.36290
40.35000,-6.72532,-4.36180
40.40000,-6.73372,-4.36467
40.45000,-6.74212,-4.36136
40.50000,-6.75025,-4.36436
40.55000,-6.75852,-4.36328
40.60000,-6.76692,-4.36409
40.65000,-6.77532,-4.36551
40.70000,-6.78345,-4.36416
40.75000,-6.79172,-4.36442
40.80000,-6.80012,-4.36653
40.85000,-6.80852,-4.36508
40.90000,-6.81692,-4.36763
40.95000,-6.82518,-4.36700
41.00000,-6.83372,-4.36748
41.05000,-6.84198,-4.36727
41.10000,-6.85012,-4.37113
41.15000,-6.85878,-4.36578
41.20000,-6.86705,-4.37501
41.25000,-6.87505,-4.36704
41.30000,-6.88345,-4.37407
41.35000,-6.89185,-4.36991
41.40000,-6.89998,-4.37611
41.45000,-6.90825,-4.37126
41.50000,-6.91678,-4.37456
41.55000,-6.92505,-4.37612
41.60000,-6.93332,-4.37902
41.65000,-6.94185,-4.37775
41.70000,-6.95025,-4.38173
41.75000,-6.95878,-4.38235
41.80000,-6.96705,-4.38535
41.85000,-6.97532,-4.38689
41.90000,-6.98385,-4.38522
41.95000,-6.99198,-4.39140
42.00000,-7.00012,-4.38918
42.05000,-7.00865,-4.39076
42.10000,-7.01705,-4.39538
42.15000,-7.02518,-4.39232
42.20000,-7.03345,-4.39519
42.25000,-7.04198,-4.39785
42.30000,-7.05012,-4.39665
42.35000,-7.05825,-4.39999
42.40000,-7.06692,-4.39813
42.45000,-7.07518,-4.40207
42.50000,-7.08345,-4.40234
42.55000,-7.09198,-4.40472
42.60000,-7.10038,-4.40423
42.65000,-7.10865,-4.40891
42.70000,-7.11705,-4.40615
42.75000,-7.12532,-4.41115
42.80000,-7.13372,-4.40942
42.85000,-7.14198,-4.41357
42.90000,-7.15012,-4.41020
42.95000,-7.15865,-4.41443
43.00000,-7.16678,-4.41335
43.05000,-7.17492,-4.41718
43.10000,-7.18332,-4.41573
43.15000,-7.19172,-4.41913
43.20000,-7.19998,-4.42026
43.25000,-7.20838,-4.42229
43.30000,-7.21705,-4.42242
43.35000,-7.22518,-4.42866
43.40000,-7.23332,-4.42435
43.45000,-7.24198,-4.43018
43.50000,-7.25038,-4.43127
43.55000,-7.25865,-4.43401
43.60000,-7.26705,-4.43421
43.65000,-7.27532,-4.43675
43.70000,-7.28345,-4.43760
43.75000,-7.29185,-4.43997
43.80000,-7.30025,-4.43947
43.85000,-7.30865,-4.44436
43.90000,-7.31678,-4.44361
43.95000,-7.32505,-4.44760
44.00000,-7.33345,-4.44626
44.05000,-7.34185,-4.45258
44.10000,-7.35012,-4.45025
44.15000,-7.35838,-4.45535
44.20000,-7.36692,-4.45448
44.25000,-7.37532,-4.45888
44.30000,-7.38345,-4.45890
44.35000,-7.39198,-4.46058
44.40000,-7.40038,-4.46309
44.45000,-7.40838,-4.46366
44.50000,-7.41665,-4.46570
44.55000,-7.42532,-4.46713
44.60000,-7.43345,-4.46859
44.65000,-7.44172,-4.47106
44.70000,-7.45025,-4.47187
44.75000,-7.45838,-4.47587
44.80000,-7.46665,-4.47466
44.85000,-7.47518,-4.47891
44.90000,-7.48358,-4.47876
44.95000,-7.49198,-4.48369
45.00000,-7.50025,-4.48442
45.05000,-7.50851,-4.48720
45.10000,-7.51705,-4.48951
45.15000,-7.52532,-4.49215
45.20000,-7.53358,-4.49529
45.25000,-7.54211,-4.49497
45.30000,-7.55038,-4.50025
45.35000,-7.55838,-4.50047
45.40000,-7.56665,-4.50271
45.45000,-7.57518,-4.50434
45.50000,-7.58332,-4.50803
45.55000,-7.59158,-4.50814
45.60000,-7.60025,-4.51366
45.65000,-7.60851,-4.51364
45.70000,-7.61691,-4.51921
45.75000,-7.62545,-4.51835
45.80000,-7.63385,-4.52467
45.85000,-7.64198,-4.52397
45.90000,-7.65038,-4.52926
45.95000,-7.65865,-4.52874
46.00000,-7.66705,-4.53322
46.05000,-7.67531,-4.53513
46.10000,-7.68345,-4.53727
46.15000,-7.69198,-4.53919
46.20000,-7.70025,-4.54229
46.25000,-7.70838,-4.54391
46.30000,-7.71678,-4.54567
46.35000,-7.72505,-4.54801
46.40000,-7.73331,-4.55016
46.45000,-7.74171,-4.55280
46.50000,-7.75038,-4.55490
46.55000,-7.75851,-4.55825
46.60000,-7.76678,-4.55965
46.65000,-7.77531,-4.56312
46.70000,-7.78371,-4.56517
46.75000,-7.79198,-4.56852
46.80000,-7.80038,-4.56962
46.85000,-7.80878,-4.57390
46.90000,-7.81691,-4.57435
46.95000,-7.82518,-4.57734
47.00000,-7.83358,-4.57785
47.05000,-7.84198,-4.58120
47.10000,-7.85025,-4.58252
47.15000,-7.85838,-4.58647
47.20000,-7.86691,-4.58642
47.25000,-7.87518,-4.59153
47.30000,-7.88358,-4.59215
47.35000,-7.89185,-4.59508
47.40000,-7.90051,-4.59926
47.45000,-7.90878,-4.60036
47.50000,-7.91678,-4.60290
47.55000,-7.92531,-4.60477
47.60000,-7.93385,-4.60891
47.65000,-7.94185,-4.61104
47.70000,-7.95011,-4.61317
47.75000,-7.95878,-4.61648
47.80000,-7.96691,-4.61807
47.85000,-7.97505,-4.62119
47.90000,-7.98345,-4.62388
47.95000,-7.99185,-4.62725
48.00000,-8.00011,-4.62999
48.05000,-8.00851,-4.63420
48.10000,-8.01691,-4.63634
48.15000,-8.02518,-4.63978
48.20000,-8.03345,-4.64248
48.25000,-8.04185,-4.64693
48.30000,-8.05038,-4.64815
48.35000,-8.05865,-4.65618
48.40000,-8.06678,-4.65512
48.45000,-8.07518,-4.66065
48.50000,-8.08371,-4.66286
48.55000,-8.09171,-4.66775
48.60000,-8.10011,-4.66830
48.65000,-8.10865,-4.67370
48.70000,-8.11678,-4.67588
48.75000,-8.12505,-4.68078
48.80000,-8.13358,-4.68197
48.85000,-8.14185,-4.68777
48.90000,-8.15011,-4.68867
48.95000,-8.15851,-4.69332
49.00000,-8.16678,-4.69661
49.05000,-8.17491,-4.69793
49.10000,-8.18331,-4.70393
49.15000,-8.19171,-4.70640
49.20000,-8.20025,-4.71137
49.25000,-8.20851,-4.71426
49.30000,-8.21651,-4.71704
49.35000,-8.22518,-4.71842
49.40000,-8.23345,-4.72421
49.45000,-8.24158,-4.72531
49.50000,-8.25011,-4.72925
49.55000,-8.25851,-4.73302
49.60000,-8.26665,-4.73726
49.65000,-8.27505,-4.73896
49.70000,-8.28371,-4.74328
49.75000,-8.29198,-4.74642
49.80000,-8.30025,-4.75081
49.85000,-8.30878,-4.75188
49.90000,-8.31718,-4.75803
49.95000,-8.32531,-4.75796
50.00000,-8.33371,-4.76406
50.05000,-8.34211,-4.76490
50.10000,-8.35025,-4.77070
50.15000,-8.35851,-4.77056
50.20000,-8.36691,-4.77667
50.25000,-8.37531,-4.77742
50.30000,-8.38345,-4.78293
50.35000,-8.39171,-4.78387
50.40000,-8.40025,-4.78916
50.45000,-8.40865,-4.79208
50.50000,-8.41691,-4.79703
50.55000,-8.42518,-4.79819
50.60000,-8.43371,-4.80198
50.65000,-8.44198,-4.80594
50.70000,-8.45011,-4.81010
50.75000,-8.45865,-4.80957
50.80000,-8.46705,-4.81668
50.85000,-8.47505,-4.81738
50.90000,-8.48331,-4.82113
50.95000,-8.49198,-4.82206
51.00000,-8.50011,-4.82944
51.05000,-8.50838,-4.82906
51.10000,-8.51678,-4.83509
51.15000,-8.52505,-4.83671
51.20000,-8.53331,-4.84024
51.25000,-8.54185,-4.84364
51.30000,-8.55025,-4.84723
51.35000,-8.55865,-4.84997
51.40000,-8.56691,-4.85310
51.45000,-8.57518,-4.85532
51.50000,-8.58358,-4.85796
51.55000,-8.59198,-4.86262
51.60000,-8.60011,-4.86452
51.65000,-8.60865,-4.86808
51.70000,-8.61705,-4.87098
51.75000,-8.62518,-4.87374
51.80000,-8.63345,-4.87447
51.85000,-8.64198,-4.87874
51.90000,-8.65011,-4.87929
51.95000,-8.65825,-4.88362
52.00000,-8.66691,-4.88481
52.05000,-8.67518,-4.89170
52.10000,-8.68345,-4.89231
52.15000,-8.69198,-4.89733
52.20000,-8.70025,-4.89900
52.25000,-8.70865,-4.90384
52.30000,-8.71705,-4.90690
52.35000,-8.72531,-4.90993
52.40000,-8.73371,-4.91317
52.45000,-8.74211,-4.91552
52.50000,-8.75011,-4.91856
52.55000,-8.75865,-4.92057
52.60000,-8.76691,-4.92548
52.65000,-8.77505,-4.92626
52.70000,-8.78345,-4.93130
52.75000,-8.79198,-4.93293
52.80000,-8.80011,-4.93800
52.85000,-8.80838,-4.93955
52.90000,-8.81705,-4.94553
52.95000,-8.82531,-4.94607
53.00000,-8.83345,-4.95169
53.05000,-8.84198,-4.95090
53.10000,-8.85038,-4.95854
53.15000,-8.85851,-4.95772
53.20000,-8.86691,-4.96433
53.25000,-8.87531,-4.96617
53.30000,-8.88345,-4.97011
53.35000,-8.89171,-4.97218
53.40000,-8.89998,-4.97727
53.45000,-8.90851,-4.97870
53.50000,-8.91678,-4.98354
53.55000,-8.92504,-4.98623
53.60000,-8.93358,-4.98980
53.65000,-8.94198,-4.99146
53.70000,-8.95011,-4.99604
53.75000,-8.95851,-4.99759
53.80000,-8.96718,-4.99968
53.85000,-8.97545,-5.00484
53.90000,-8.98345,-5.00552
53.95000,-8.99198,-5.00816
54.00000,-9.00051,-5.01273
54.05000,-9.00851,-5.01443
54.10000,-9.01678,-5.01462
54.15000,-9.02531,-5.01963
54.20000,-9.03344,-5.01995
54.25000,-9.04158,-5.02337
54.30000,-9.05011,-5.02495
54.35000,-9.05838,-5.02816
54.40000,-9.06678,-5.02981
54.45000,-9.07518,-5.03383
54.50000,-9.08358,-5.03492
54.55000,-9.09184,-5.04019
54.60000,-9.10024,-5.04063
54.65000,-9.10851,-5.04495
54.70000,-9.11704,-5.04467
54.75000,-9.12544,-5.05118
54.80000,-9.13358,-5.05102
54.85000,-9.14198,-5.05462
54.90000,-9.15038,-5.05522
54.95000,-9.15838,-5.05970
55.00000,-9.16678,-5.05747
55.05000,-9.17518,-5.06220
55.10000,-9.18331,-5.06222
55.15000,-9.19144,-5.06713
55.20000,-9.20011,-5.06578
55.25000,-9.20851,-5.07193
55.30000,-9.21664,-5.07277
55.35000,-9.22531,-5.07672
55.40000,-9.23371,-5.07912
55.45000,-9.24198,-5.08195
55.50000,-9.25038,-5.08455
55.55000,-9.25864,-5.08761
55.60000,-9.26704,-5.09005
55.65000,-9.27531,-5.09280
55.70000,-9.28344,-5.09483
55.75000,-9.29198,-5.09666
55.80000,-9.30024,-5.10072
55.85000,-9.30838,-5.10038
55.90000,-9.31678,-5.10363
55.95000,-9.32518,-5.10575
56.00000,-9.33331,-5.10834
56.05000,-9.34158,-5.11069
56.10000,-9.35038,-5.11428
56.15000,-9.35864,-5.11891
56.20000,-9.36678,-5.12084
56.25000,-9.37531,-5.12133
56.30000,-9.38358,-5.12776
56.35000,-9.39184,-5.12588
56.40000,-9.40024,-5.13120
56.45000,-9.40878,-5.13154
56.50000,-9.41691,-5.13623
56.55000,-9.42518,-5.13493
56.60000,-9.43344,-5.14091
56.65000,-9.44198,-5.14093
56.70000,-9.45024,-5.14466
56.75000,-9.45838,-5.14674
56.80000,-9.46678,-5.14850
56.85000,-9.47518,-5.15030
56.90000,-9.48344,-5.15481
56.95000,-9.49171,-5.15357
57.00000,-9.50038,-5.15890
57.05000,-9.50864,-5.15916
57.10000,-9.51678,-5.16398
57.15000,-9.52531,-5.16194
57.20000,-9.53371,-5.16924
57.25000,-9.54171,-5.16696
57.30000,-9.54998,-5.17017
57.35000,-9.55851,-5.17118
57.40000,-9.56678,-5.17638
57.45000,-9.57491,-5.17532
57.50000,-9.58344,-5.18110
57.55000,-9.59184,-5.18016
57.60000,-9.60011,-5.18518
57.65000,-9.60838,-5.18480
57.70000,-9.61691,-5.18884
57.75000,-9.62531,-5.18973
57.80000,-9.63358,-5.19564
57.85000,-9.64184,-5.19392
57.90000,-9.65038,-5.19829
57.95000,-9.65864,-5.19918
58.00000,-9.66691,-5.20281
58.05000,-9.67531,-5.20220
58.10000,-9.68384,-5.20702
58.15000,-9.69171,-5.20607
58.20000,-9.69998,-5.20887
58.25000,-9.70864,-5.20981
58.30000,-9.71691,-5.21416
58.35000,-9.72504,-5.21376
58.40000,-9.73358,-5.21666
58.45000,-9.74198,-5.21795
58.50000,-9.75024,-5.22226
58.55000,-9.75864,-5.22276
58.60000,-9.76718,-5.22700
58.65000,-9.77531,-5.22866
58.70000,-9.78371,-5.23084
58.75000,-9.79198,-5.23273
58.80000,-9.80038,-5.23523
58.85000,-9.80878,-5.23854
58.90000,-9.81678,-5.23804
58.95000,-9.82531,-5.24201
59.00000,-9.83371,-5.24304
59.05000,-9.84171,-5.24752
59.10000,-9.85011,-5.24529
59.15000,-9.85851,-5.25300
59.20000,-9.86664,-5.25183
59.25000,-9.87504,-5.25623
59.30000,-9.88371,-5.25871
59.35000,-9.89198,-5.26402
59.40000,-9.90011,-5.26412
59.45000,-9.90864,-5.26735
59.50000,-9.91704,-5.26989
59.55000,-9.92531,-5.27372
59.60000,-9.93358,-5.27242
59.65000,-9.94198,-5.27930
59.70000,-9.95024,-5.27695
59.75000,-9.95851,-5.28332
59.80000,-9.96678,-5.28091
59.85000,-9.97518,-5.28483
59.90000,-9.98344,-5.28728
59.95000,-9.99171,-5.28850
60.00000,-10.00011,-5.29054
60.05000,-10.00864,-5.29349
60.10000,-10.01691,-5.29591
60.15000,-10.02518,-5.29718
60.20000,-10.03358,-5.29818
60.25000,-10.04198,-5.30249
60.30000,-10.05024,-5.30228
60.35000,-10.05864,-5.30555
60.40000,-10.06718,-5.30712
60.45000,-10.07518,-5.30899
60.50000,-10.08331,-5.31067
60.55000,-10.09198,-5.31207
60.60000,-10.10011,-5.31567
60.65000,-10.10837,-5.31627
60.70000,-10.11678,-5.32023
60.75000,-10.12504,-5.31954
60.80000,-10.13344,-5.32417
60.85000,-10.14184,-5.32375
60.90000,-10.15024,-5.32849
60.95000,-10.15864,-5.32762
61.00000,-10.16691,-5.33279
61.05000,-10.17518,-5.33098
61.10000,-10.18371,-5.33481
61.15000,-10.19198,-5.33527
61.20000,-10.20011,-5.33861
61.25000,-10.20864,-5.33774
61.30000,-10.21704,-5.34315
61.35000,-10.22504,-5.34152
61.40000,-10.23344,-5.34479
61.45000,-10.24198,-5.34500
61.50000,-10.25024,-5.35075
61.55000,-10.25837,-5.34787
61.60000,-10.26704,-5.35267
61.65000,-10.27531,-5.35389
61.70000,-10.28344,-5.35551
61.75000,-10.29197,-5.35610
61.80000,-10.30037,-5.35943
61.85000,-10.30864,-5.36100
61.90000,-10.31691,-5.36223
61.95000,-10.32531,-5.36301
62.00000,-10.33371,-5.36569
62.05000,-10.34184,-5.36726
62.10000,-10.34997,-5.36780
62.15000,-10.35851,-5.36904
62.20000,-10.36691,-5.37258
62.25000,-10.37504,-5.37339
62.30000,-10.38344,-5.37417
62.35000,-10.39197,-5.37748
62.40000,-10.39997,-5.37939
62.45000,-10.40837,-5.38057
62.50000,-10.41704,-5.38339
62.55000,-10.42531,-5.38701
62.60000,-10.43344,-5.38704
62.65000,-10.44197,-5.38917
62.70000,-10.45037,-5.39179
62.75000,-10.45851,-5.39318
62.80000,-10.46691,-5.39493
62.85000,-10.47531,-5.39560
62.90000,-10.48357,-5.39848
62.95000,-10.49184,-5.39907
63.00000,-10.50011,-5.40078
63.05000,-10.50851,-5.40175
63.10000,-10.51677,-5.40501
63.15000,-10.52504,-5.40635
63.20000,-10.53344,-5.40775
63.25000,-10.54184,-5.41132
63.30000,-10.55011,-5.41327
63.35000,-10.55851,-5.41502
63.40000,-10.56704,-5.41705
63.45000,-10.57544,-5.42126
63.50000,-10.58357,-5.42339
63.55000,-10.59197,-5.42375
63.60000,-10.60037,-5.42849
63.65000,-10.60851,-5.42952
63.70000,-10.61677,-5.43200
63.75000,-10.62517,-5.43350
63.80000,-10.63331,-5.43716
63.85000,-10.64157,-5.43867
63.90000,-10.64997,-5.44314
63.95000,-10.65837,-5.44464
64.00000,-10.66664,-5.44908
64.05000,-10.67517,-5.45187
64.10001,-10.68357,-5.45511
64.15000,-10.69197,-5.45751
64.20000,-10.70024,-5.46092
64.25000,-10.70864,-5.46267
64.30000,-10.71717,-5.46647
64.35001,-10.72544,-5.46825
64.40000,-10.73344,-5.47197
64.45000,-10.74197,-5.47232
64.50000,-10.75024,-5.47623
64.55000,-10.75837,-5.47776
64.60001,-10.76677,-5.48060
64.65000,-10.77517,-5.48363
64.70000,-10.78331,-5.48588
64.75000,-10.79157,-5.48878
64.80000,-10.80011,-5.49041
64.85001,-10.80851,-5.49468
64.90000,-10.81664,-5.49637
64.95000,-10.82517,-5.49962
65.00000,-10.83357,-5.50379
65.05000,-10.84197,-5.50658
65.10001,-10.85011,-5.50973
65.15000,-10.85851,-5.51277
65.20000,-10.86691,-5.51500
65.25000,-10.87531,-5.51959
65.30000,-10.88331,-5.52209
65.35001,-10.89184,-5.52592
65.40000,-10.90024,-5.52941
65.45000,-10.90851,-5.53337
65.50000,-10.91691,-5.53466
65.55000,-10.92531,-5.54046
65.60001,-10.93344,-5.54084
65.65000,-10.94171,-5.54574
65.70001,-10.95024,-5.54629
65.75000,-10.95851,-5.55371
65.80000,-10.96664,-5.55430
65.85001,-10.97517,-5.55928
65.90000,-10.98384,-5.56301
65.95001,-10.99197,-5.56845
66.00000,-11.00037,-5.57002
66.05000,-11.00877,-5.57559
66.10001,-11.01704,-5.57647
66.15000,-11.02517,-5.58124
66.20001,-11.03344,-5.58352
66.25000,-11.04184,-5.58679
66.30000,-11.05024,-5.58832
66.35001,-11.05837,-5.59559
66.40000,-11.06677,-5.59294
66.45001,-11.07531,-5.60006
66.50000,-11.08357,-5.60091
66.55000,-11.09184,-5.60495
66.60001,-11.10037,-5.60886
66.65000,-11.10877,-5.61098
66.70001,-11.11691,-5.61639
66.75000,-11.12531,-5.61634
66.80000,-11.13384,-5.62364
66.85001,-11.14184,-5.62607
66.90000,-11.15011,-5.62839
66.95001,-11.15851,-5.63265
67.00000,-11.16677,-5.63414
67.05000,-11.17504,-5.64008
67.10001,-11.18344,-5.64343
67.15000,-11.19171,-5.64505
67.20001,-11.19997,-5.65176
67.25000,-11.20851,-5.65198
67.30000,-11.21691,-5.65896
67.35001,-11.22531,-5.66064
67.40000,-11.23357,-5.66736
67.45001,-11.24197,-5.66672
67.50000,-11.25051,-5.67429
67.55000,-11.25877,-5.67496
67.60001,-11.26691,-5.67976
67.65000,-11.27544,-5.68047
67.70001,-11.28384,-5.68544
67.75000,-11.29184,-5.68919
67.80000,-11.30024,-5.68665
67.85001,-11.30851,-5.69492
67.90000,-11.31664,-5.69368
67.95001,-11.32491,-5.69718
68.00000,-11.33357,-5.70221
68.05000,-11.34184,-5.70479
68.10001,-11.35011,-5.71098
68.15000,-11.35864,-5.71210
68.20001,-11.36704,-5.71552
68.25000,-11.37531,-5.72321
68.30000,-11.38357,-5.71886
68.35001,-11.39197,-5.73089
68.40000,-11.40024,-5.72594
68.45001,-11.40851,-5.73554
68.50000,-11.41664,-5.73427
68.55000,-11.42531,-5.74007
68.60001,-11.43357,-5.74195
68.65000,-11.44171,-5.74588
68.70001,-11.45011,-5.74360
68.75000,-11.45851,-5.75534
68.80000,-11.46664,-5.74730
68.85001,-11.47504,-5.76078
68.90000,-11.48371,-5.75343
68.95001,-11.49184,-5.76615
69.00000,-11.50011,-5.76179
69.05000,-11.50864,-5.76910
69.10001,-11.51704,-5.76779
69.15000,-11.52517,-5.77395
69.20001,-11.53357,-5.77237
69.25000,-11.54197,-5.78319
69.30000,-11.55011,-5.77394
69.35001,-11.55837,-5.78672
69.40000,-11.56677,-5.78019
69.45001,-11.57530,-5.79104
69.50000,-11.58357,-5.78884
69.55000,-11.59171,-5.79487
69.60001,-11.60024,-5.79419
69.65000,-11.60864,-5.79832
69.70001,-11.61677,-5.80449
69.75000,-11.62517,-5.80078
69.80000,-11.63371,-5.81196
69.85001,-11.64210,-5.80558
69.90000,-11.65024,-5.81698
69.95001,-11.65877,-5.81214
70.00000,-11.66717,-5.81839
70.05000,-11.67517,-5.81485
70.10001,-11.68357,-5.81703
70.15000,-11.69197,-5.81868
70.20001,-11.69997,-5.82107
70.25000,-11.70824,-5.82168
70.30000,-11.71677,-5.82507
70.35001,-11.72517,-5.82560
70.40000,-11.73344,-5.83252
70.45001,-11.74184,-5.82958
70.50000,-11.75024,-5.83444
70.55000,-11.75864,-5.83649
70.60001,-11.76690,-5.83850
70.65000,-11.77517,-5.84212
70.70001,-11.78371,-5.84360
70.75000,-11.79184,-5.84849
70.80000,-11.79997,-5.84721
70.85001,-11.80864,-5.85172
70.90000,-11.81704,-5.85586
70.95001,-11.82517,-5.85504
71.00000,-11.83357,-5.86393
71.05000,-11.84184,-5.85217
71.10001,-11.84997,-5.87076
71.15000,-11.85824,-5.85977
71.20001,-11.86690,-5.87195
71.25000,-11.87517,-5.86792
71.30000,-11.88344,-5.87799
71.35001,-11.89197,-5.87551
71.40000,-11.90037,-5.88540
71.45001,-11.90864,-5.88151
71.50000,-11.91704,-5.89343
71.55000,-11.92530,-5.88599
71.60001,-11.93370,-5.89579
71.65000,-11.94210,-5.89479
71.70001,-11.95010,-5.89780
71.75000,-11.95864,-5.89890
71.80000,-11.96690,-5.90475
71.85001,-11.97504,-5.90603
71.90000,-11.98344,-5.90905
71.95001,-11.99184,-5.91115
72.00000,-12.00010,-5.91505
72.05000,-12.00850,-5.91950
72.10001,-12.01704,-5.91851
72.15000,-12.02530,-5.92765
72.20001,-12.03344,-5.92444
72.25000,-12.04197,-5.93050
72.30000,-12.05037,-5.92979
72.35001,-12.05850,-5.93411
72.40000,-12.06704,-5.93402
72.45001,-12.07544,-5.93766
72.50000,-12.08357,-5.93940
72.55000,-12.09184,-5.94090
72.60001,-12.10024,-5.94308
72.65000,-12.10864,-5.94630
72.70001,-12.11690,-5.94784
72.75000,-12.12504,-5.95226
72.80000,-12.13344,-5.95200
72.85001,-12.14184,-5.95714
72.90000,-12.15010,-5.95866
72.95001,-12.15850,-5.96174
73.00000,-12.16704,-5.96497
73.05000,-12.17530,-5.96974
73.10001,-12.18344,-5.97095
73.15000,-12.19184,-5.97418
73.20001,-12.20037,-5.97751
73.25000,-12.20837,-5.98009
73.30000,-12.21677,-5.98131
73.35001,-12.22530,-5.98735
73.40000,-12.23344,-5.98923
73.45001,-12.24170,-5.99391
73.50000,-12.25010,-5.99564
73.55000,-12.25850,-6.00165
73.60001,-12.26677,-6.00334
73.65000,-12.27517,-6.00899
73.70001,-12.28357,-6.01123
73.75000,-12.29197,-6.01673
73.80000,-12.30024,-6.01969
73.85001,-12.30850,-6.02270
73.90000,-12.31704,-6.02638
73.95001,-12.32530,-6.03188
74.00000,-12.33357,-6.03433
74.05000,-12.34197,-6.03760
74.10001,-12.35037,-6.04265
74.15000,-12.35837,-6.04530
74.20001,-12.36677,-6.04837
74.25000,-12.37517,-6.05254
74.30000,-12.38330,-6.05632
74.35001,-12.39157,-6.06023
74.40000,-12.40024,-6.06447
74.45001,-12.40850,-6.06936
74.50000,-12.41677,-6.07305
74.55000,-12.42530,-6.07721
74.60001,-12.43370,-6.08254
74.65000,-12.44197,-6.08595
74.70001,-12.45037,-6.09043
74.75000,-12.45864,-6.09407
74.80000,-12.46704,-6.09866
74.85001,-12.47530,-6.10265
74.90000,-12.48344,-6.10679
74.95001,-12.49197,-6.10930
75.00000,-12.50037,-6.11462
75.05000,-12.50850,-6.11734
75.10001,-12.51677,-6.11963
75.15000,-12.52517,-6.12390
75.20001,-12.53330,-6.12769
75.25000,-12.54184,-6.13224
75.30000,-12.55037,-6.13866
75.35001,-12.55864,-6.14317
75.40000,-12.56677,-6.14809
75.45001,-12.57530,-6.15082
75.50000,-12.58370,-6.15718
75.55000,-12.59184,-6.16016
75.60001,-12.60024,-6.16551
75.65000,-12.60877,-6.16897
75.70001,-12.61690,-6.17372
75.75000,-12.62517,-6.17744
75.80000,-12.63357,-6.18171
75.85001,-12.64197,-6.18588
75.90000,-12.65010,-6.18916
75.95001,-12.65837,-6.19393
76.00000,-12.66677,-6.19679
76.05000,-12.67517,-6.20305
76.10001,-12.68344,-6.20741
76.15000,-12.69184,-6.21212
76.20001,-12.70037,-6.21540
76.25000,-12.70864,-6.22130
76.30000,-12.71677,-6.22266
76.35001,-12.72530,-6.22666
76.40000,-12.73370,-6.23074
76.45001,-12.74184,-6.23510
76.50000,-12.75024,-6.23526
76.55000,-12.75864,-6.24287
76.60001,-12.76677,-6.24274
76.65000,-12.77504,-6.25031
76.70001,-12.78344,-6.25032
76.75000,-12.79170,-6.25637
76.80000,-12.79997,-6.25984
76.85001,-12.80837,-6.26402
76.90000,-12.81677,-6.26844
76.95001,-12.82517,-6.27128
77.00000,-12.83357,-6.28037
77.05000,-12.84184,-6.27886
77.10001,-12.85024,-6.28645
77.15000,-12.85850,-6.28675
77.20001,-12.86663,-6.29352
77.25000,-12.87517,-6.29369
77.30000,-12.88357,-6.30185
77.35001,-12.89170,-6.30312
77.40000,-12.90010,-6.30762
77.45001,-12.90863,-6.31134
77.50000,-12.91677,-6.31670
77.55000,-12.92490,-6.31677
77.60001,-12.93357,-6.32098
77.65000,-12.94184,-6.32378
77.70001,-12.95010,-6.32840
77.75000,-12.95850,-6.33056
77.80000,-12.96690,-6.33483
77.85001,-12.97530,-6.33915
77.90000,-12.98370,-6.34249
77.95001,-12.99197,-6.34490
78.00000,-13.00037,-6.34913
78.05000,-13.00863,-6.34919
78.10001,-13.01677,-6.35691
78.15000,-13.02530,-6.35450
78.20001,-13.03357,-6.36227
78.25000,-13.04157,-6.36121
78.30000,-13.05010,-6.36346
78.35001,-13.05850,-6.37038
78.40000,-13.06677,-6.37161
78.45001,-13.07517,-6.37607
78.50000,-13.08370,-6.37735
78.55000,-13.09183,-6.38335
78.60001,-13.10023,-6.38435
78.65000,-13.10863,-6.38803
78.70001,-13.11703,-6.39219
78.75000,-13.12517,-6.39186
78.80000,-13.13370,-6.39696
78.85001,-13.14197,-6.39872
78.90000,-13.15023,-6.40044
78.95001,-13.15850,-6.40485
79.00000,-13.16690,-6.40409
79.05000,-13.17530,-6.41120
79.10001,-13.18357,-6.41078
79.15000,-13.19170,-6.41644
79.20001,-13.20023,-6.41556
79.25000,-13.20863,-6.42307
79.30000,-13.21677,-6.42437
79.35001,-13.22517,-6.42623
79.40000,-13.23370,-6.43173
79.45001,-13.24197,-6.43527
79.50000,-13.25010,-6.43656
79.55000,-13.25863,-6.43956
79.60001,-13.26703,-6.44273
79.65000,-13.27503,-6.44752
79.70001,-13.28343,-6.44689
79.75000,-13.29197,-6.45350
79.80000,-13.30010,-6.45378
79.85001,-13.30837,-6.45776
79.90000,-13.31677,-6.45940
79.95001,-13.32503,-6.46279
80.00000,-13.33330,-6.46435
80.05000,-13.34170,-6.46967
80.10001,-13.35023,-6.47040
80.15000,-13.35850,-6.47657
80.20001,-13.36677,-6.47749
80.25000,-13.37517,-6.48274
80.30000,-13.38370,-6.48296
80.35001,-13.39197,-6.48985
80.40000,-13.40023,-6.48908
80.45001,-13.40863,-6.49275
80.50001,-13.41703,-6.49499
80.55000,-13.42517,-6.49824
80.60001,-13.43357,-6.49762
80.65000,-13.44197,-6.50317
80.70001,-13.45010,-6.50382
80.75001,-13.45837,-6.50708
80.80000,-13.46690,-6.50664
80.85001,-13.47517,-6.50990
80.90000,-13.48330,-6.51399
80.95001,-13.49183,-6.51176
81.00001,-13.50037,-6.51894
81.05000,-13.50863,-6.51848
81.10001,-13.51703,-6.52184
81.15000,-13.52530,-6.52166
81.20001,-13.53357,-6.52405
81.25001,-13.54183,-6.52504
81.30000,-13.55010,-6.52802
81.35001,-13.55863,-6.52790
81.40000,-13.56703,-6.53448
81.45001,-13.57503,-6.53099
81.50001,-13.58343,-6.53552
81.55000,-13.59183,-6.53411
81.60001,-13.60010,-6.53909
81.65000,-13.60850,-6.53810
81.70001,-13.61717,-6.54338
81.75001,-13.62530,-6.54484
81.80000,-13.63357,-6.54608
81.85001,-13.64210,-6.54885
81.90000,-13.65050,-6.55273
81.95001,-13.65877,-6.55328
82.00001,-13.66703,-6.55723
82.05000,-13.67543,-6.55815
82.10001,-13.68370,-6.56103
82.15000,-13.69183,-6.56160
82.20001,-13.70023,-6.56427
82.25001,-13.70850,-6.56607
82.30000,-13.71677,-6.56897
82.35001,-13.72517,-6.57213
82.40000,-13.73357,-6.57365
82.45001,-13.74197,-6.57925
82.50001,-13.75023,-6.58244
82.55000,-13.75863,-6.58520
82.60001,-13.76717,-6.58758
82.65000,-13.77530,-6.59379
82.70001,-13.78357,-6.59370
82.75001,-13.79197,-6.59802
82.80000,-13.80023,-6.60060
82.85001,-13.80837,-6.60373
82.90000,-13.81663,-6.60596
82.95001,-13.82517,-6.61167
83.00001,-13.83330,-6.61413
83.05000,-13.84157,-6.61920
83.10001,-13.84997,-6.62140
83.15000,-13.85823,-6.62636
83.20001,-13.86650,-6.63059
83.25001,-13.87490,-6.63521
83.30000,-13.88343,-6.64053
83.35001,-13.89183,-6.64675
83.40000,-13.90010,-6.65117
83.45001,-13.90850,-6.65559
83.50001,-13.91703,-6.65922
83.55000,-13.92530,-6.66550
83.60001,-13.93343,-6.66779
83.65000,-13.94183,-6.67005
83.70001,-13.95023,-6.67610
83.75001,-13.95837,-6.67784
83.80000,-13.96663,-6.68189
83.85001,-13.97517,-6.68506
83.90000,-13.98330,-6.69101
83.95001,-13.99157,-6.69056
84.00001,-14.00023,-6.69768
84.05000,-14.00850,-6.70124
84.10001,-14.01690,-6.70652
84.15000,-14.02543,-6.70912
84.20001,-14.03370,-6.71480
84.25001,-14.04197,-6.71868
84.30000,-14.05037,-6.72567
84.35001,-14.05877,-6.72837
84.40000,-14.06703,-6.73361
84.45001,-14.07543,-6.73774
84.50001,-14.08357,-6.74125
84.55000,-14.09210,-6.74581
84.60001,-14.10037,-6.75024
84.65000,-14.10850,-6.75469
84.70001,-14.11690,-6.75675
84.75001,-14.12530,-6.76355
84.80000,-14.13343,-6.76489
84.85001,-14.14170,-6.77212
84.90000,-14.15023,-6.77095
84.95001,-14.15850,-6.78082
85.00001,-14.16690,-6.78092
85.05000,-14.17543,-6.78884
85.10001,-14.18370,-6.79179
85.15000,-14.19183,-6.79483
85.20001,-14.20023,-6.79723
85.25001,-14.20863,-6.80260
85.30000,-14.21676,-6.80471
85.35001,-14.22517,-6.80822
85.40000,-14.23356,-6.81208
85.45001,-14.24197,-6.81590
85.50001,-14.25010,-6.81711
85.55000,-14.25837,-6.82423
85.60001,-14.26676,-6.82320
85.65000,-14.27517,-6.83134
85.70001,-14.28343,-6.83399
85.75001,-14.29170,-6.83621
85.80000,-14.30037,-6.84214
85.85001,-14.30863,-6.84644
85.90000,-14.31676,-6.84764
85.95001,-14.32530,-6.85285
86.00001,-14.33370,-6.85554
86.05000,-14.34170,-6.85606
86.10001,-14.35010,-6.86132
86.15000,-14.35863,-6.86231
86.20001,-14.36676,-6.86693
86.25001,-14.37490,-6.86986
86.30000,-14.38343,-6.87218
86.35001,-14.39183,-6.87656
86.40000,-14.40010,-6.87860
86.45001,-14.40850,-6.88191
86.50001,-14.41690,-6.88422
86.55000,-14.42530,-6.89165
86.60001,-14.43356,-6.88883
86.65000,-14.44183,-6.89903
86.70001,-14.45036,-6.89699
86.75001,-14.45863,-6.90376
86.80000,-14.46676,-6.90511
86.85001,-14.47530,-6.90845
86.90000,-14.48370,-6.91313
86.95001,-14.49183,-6.91346
87.00001,-14.50010,-6.91878
87.05000,-14.50863,-6.91982
87.10001,-14.51676,-6.92659
87.15000,-14.52490,-6.92399
87.20001,-14.53356,-6.93209
87.25001,-14.54183,-6.93588
87.30000,-14.55010,-6.93875
87.35001,-14.55863,-6.94204
87.40000,-14.56703,-6.94908
87.45001,-14.57530,-6.94964
87.50001,-14.58356,-6.95481
87.55000,-14.59196,-6.95614
87.60001,-14.60036,-6.96086
87.65000,-14.60863,-6.96417
87.70001,-14.61676,-6.96993
87.75001,-14.62530,-6.96709
87.80000,-14.63343,-6.98044
87.85001,-14.64156,-6.97619
87.90000,-14.64996,-6.98123
87.95001,-14.65850,-6.98806
88.00001,-14.66663,-6.98850
88.05000,-14.67503,-6.99579
88.10001,-14.68370,-6.99921
88.15000,-14.69196,-6.99955
88.20001,-14.70010,-7.01288
88.25001,-14.70876,-7.00323
88.30000,-14.71703,-7.01824
88.35001,-14.72530,-7.01454
88.40000,-14.73370,-7.02178
88.45001,-14.74210,-7.02117
88.50001,-14.75023,-7.02748
88.55000,-14.75850,-7.02498
88.60001,-14.76690,-7.03320
88.65000,-14.77516,-7.02946
88.70001,-14.78356,-7.03992
88.75001,-14.79170,-7.03516
88.80000,-14.80010,-7.04363
88.85001,-14.80850,-7.04253
88.90000,-14.81676,-7.05011
88.95001,-14.82516,-7.04917
89.00001,-14.83370,-7.05682
89.05000,-14.84196,-7.05804
89.10001,-14.85010,-7.06286
89.15000,-14.85850,-7.06383
89.20001,-14.86690,-7.06924
89.25001,-14.87503,-7.06826
89.30000,-14.88330,-7.07397
89.35001,-14.89196,-7.07656
89.40000,-14.90010,-7.07606
89.45001,-14.90836,-7.08205
89.50001,-14.91676,-7.07688
89.55000,-14.92503,-7.08332
89.60001,-14.93343,-7.08156
89.65000,-14.94183,-7.08657
89.70001,-14.95010,-7.08697
89.75001,-14.95850,-7.09209
89.80000,-14.96690,-7.09304
89.85001,-14.97516,-7.09475
89.90000,-14.98370,-7.09773
89.95001,-14.99196,-7.10231
90.00001,-15.00010,-7.10343
90.05000,-15.00863,-7.10708
90.10001,-15.01703,-7.10958
90.15000,-15.02503,-7.11205
90.18201,-15.03036,-7.11102
