Time,Extension,Load
(sec),(mm),(N)
0.00000,0.00000,-0.11696
0.05000,-0.00107,-0.11836
0.10000,-0.00560,-0.11940
0.15000,-0.01453,-0.12972
0.20000,-0.02520,-0.13867
0.25000,-0.03547,-0.15232
0.30000,-0.04533,-0.15920
0.35000,-0.05467,-0.17052
0.40000,-0.06400,-0.17638
0.45000,-0.07307,-0.18540
0.50000,-0.08160,-0.19192
0.55000,-0.09053,-0.20034
0.60000,-0.09933,-0.20672
0.65000,-0.10760,-0.21417
0.70000,-0.11613,-0.22048
0.75000,-0.12480,-0.22861
0.80000,-0.13307,-0.23392
0.85000,-0.14147,-0.24271
0.90000,-0.14987,-0.24814
0.95000,-0.15827,-0.25657
1.00000,-0.16653,-0.26139
1.05000,-0.17480,-0.27061
1.10000,-0.18307,-0.27618
1.15000,-0.19160,-0.28512
1.20000,-0.19973,-0.29110
1.25000,-0.20800,-0.29881
1.30000,-0.21653,-0.30590
1.35000,-0.22493,-0.31351
1.40000,-0.23307,-0.32207
1.45000,-0.24160,-0.32874
1.50000,-0.25000,-0.33798
1.55000,-0.25813,-0.34431
1.60000,-0.26653,-0.35257
1.65000,-0.27507,-0.36073
1.70000,-0.28320,-0.36770
1.75000,-0.29147,-0.37662
1.80000,-0.29987,-0.38266
1.85000,-0.30813,-0.39251
1.90000,-0.31627,-0.39767
1.95000,-0.32467,-0.40754
2.00000,-0.33293,-0.41585
2.05000,-0.34133,-0.42262
2.10000,-0.34973,-0.43223
2.15000,-0.35827,-0.43953
2.20000,-0.36667,-0.44859
2.25000,-0.37493,-0.45801
2.30000,-0.38320,-0.46472
2.35000,-0.39160,-0.47512
2.40000,-0.40013,-0.48233
2.45000,-0.40827,-0.49210
2.50000,-0.41653,-0.49989
2.55000,-0.42507,-0.50956
2.60000,-0.43320,-0.51778
2.65000,-0.44147,-0.52685
2.70000,-0.45000,-0.53649
2.75000,-0.45827,-0.54422
2.80000,-0.46640,-0.55467
2.85000,-0.47467,-0.56229
2.90000,-0.48320,-0.57191
2.95000,-0.49147,-0.58220
3.00000,-0.49987,-0.59109
3.05000,-0.50840,-0.60004
3.10000,-0.51653,-0.61085
3.15000,-0.52507,-0.61856
3.20000,-0.53347,-0.63047
3.25000,-0.54173,-0.63693
3.30000,-0.55000,-0.65014
3.35000,-0.55840,-0.65648
3.40000,-0.56653,-0.66912
3.45000,-0.57507,-0.67635
3.50000,-0.58333,-0.68864
3.55000,-0.59147,-0.69494
3.60000,-0.59987,-0.70863
3.65000,-0.60813,-0.71555
3.70000,-0.61640,-0.72648
3.75000,-0.62493,-0.73584
3.80000,-0.63347,-0.74786
3.85000,-0.64160,-0.75568
3.90000,-0.64987,-0.76698
3.95000,-0.65853,-0.77624
4.00000,-0.66680,-0.78741
4.05000,-0.67507,-0.79560
4.10000,-0.68346,-0.80825
4.15000,-0.69173,-0.81634
4.20000,-0.69986,-0.82725
4.25000,-0.70813,-0.83714
4.30000,-0.71653,-0.84778
4.35000,-0.72493,-0.85681
4.40000,-0.73320,-0.86902
4.45000,-0.74133,-0.87755
4.50000,-0.74986,-0.88890
4.55000,-0.75826,-0.89936
4.60000,-0.76640,-0.90985
4.65000,-0.77493,-0.91991
4.70000,-0.78333,-0.93063
4.75000,-0.79146,-0.94158
4.80000,-0.79986,-0.95087
4.85000,-0.80840,-0.96196
4.90000,-0.81640,-0.97222
4.95000,-0.82480,-0.98291
5.00000,-0.83333,-0.99238
5.05000,-0.84146,-1.00417
5.10000,-0.84973,-1.01252
5.15000,-0.85813,-1.02465
5.20000,-0.86640,-1.03333
5.25000,-0.87466,-1.04520
5.30000,-0.88306,-1.05411
5.35000,-0.89133,-1.06591
5.40000,-0.89986,-1.07513
5.45000,-0.90826,-1.08712
5.50000,-0.91640,-1.09604
5.55000,-0.92493,-1.10743
5.60000,-0.93320,-1.11783
5.65000,-0.94146,-1.12834
5.70000,-0.94973,-1.13839
5.75000,-0.95840,-1.14935
5.80000,-0.96653,-1.16066
5.85000,-0.97466,-1.16923
5.90000,-0.98320,-1.18006
5.95000,-0.99146,-1.19096
6.00000,-0.99960,-1.20106
6.05000,-1.00800,-1.21068
6.10000,-1.01666,-1.22261
6.15000,-1.02493,-1.23265
6.20000,-1.03333,-1.24362
6.25000,-1.04186,-1.25290
6.30000,-1.05013,-1.26456
6.35000,-1.05840,-1.27392
6.40000,-1.06680,-1.28461
6.45000,-1.07506,-1.29430
6.50000,-1.08333,-1.30565
6.55000,-1.09160,-1.31526
6.60000,-1.09986,-1.32471
6.65000,-1.10826,-1.33694
6.70000,-1.11666,-1.34611
6.75000,-1.12480,-1.35806
6.80000,-1.13333,-1.36616
6.85000,-1.14146,-1.37926
6.90000,-1.14960,-1.38714
6.95000,-1.15826,-1.39870
7.00000,-1.16680,-1.40878
7.05000,-1.17493,-1.42005
7.10000,-1.18320,-1.42895
7.15000,-1.19186,-1.44070
7.20000,-1.20000,-1.44985
7.25000,-1.20826,-1.46103
7.30000,-1.21666,-1.47008
7.35000,-1.22493,-1.48112
7.40000,-1.23306,-1.48999
7.45000,-1.24133,-1.50120
7.50000,-1.24973,-1.51022
7.55000,-1.25813,-1.52117
7.60000,-1.26640,-1.53132
7.65000,-1.27453,-1.54044
7.70000,-1.28320,-1.55164
7.75000,-1.29160,-1.56058
7.80000,-1.29973,-1.57246
7.85000,-1.30826,-1.58016
7.90000,-1.31666,-1.59255
7.95000,-1.32480,-1.60062
8.00000,-1.33320,-1.61149
8.05000,-1.34186,-1.62111
8.10000,-1.34986,-1.63109
8.15000,-1.35813,-1.64053
8.20000,-1.36653,-1.64999
8.25000,-1.37480,-1.66008
8.30000,-1.38293,-1.66902
8.35000,-1.39146,-1.67945
8.40000,-1.39973,-1.68846
8.45000,-1.40800,-1.69869
8.50000,-1.41640,-1.70688
8.55000,-1.42480,-1.71946
8.60000,-1.43320,-1.72637
8.65000,-1.44160,-1.73964
8.70000,-1.44986,-1.74606
8.75000,-1.45840,-1.75890
8.80000,-1.46680,-1.76540
8.85000,-1.47493,-1.77836
8.90000,-1.48320,-1.78426
8.95000,-1.49186,-1.79646
9.00000,-1.49986,-1.80493
9.05000,-1.50813,-1.81504
9.10000,-1.51653,-1.82361
9.15000,-1.52480,-1.83392
9.20000,-1.53293,-1.84310
9.25000,-1.54146,-1.85173
9.30000,-1.55000,-1.86256
9.35000,-1.55813,-1.87036
9.40000,-1.56640,-1.88183
9.45000,-1.57506,-1.88876
9.50000,-1.58333,-1.90150
9.55000,-1.59173,-1.90754
9.60000,-1.60013,-1.91992
9.65000,-1.60840,-1.92558
9.70000,-1.61666,-1.93704
9.75000,-1.62506,-1.94532
9.80000,-1.63320,-1.95486
9.85000,-1.64160,-1.96338
9.90000,-1.64973,-1.97290
9.95000,-1.65800,-1.98171
10.00000,-1.66653,-1.99114
10.05000,-1.67480,-1.99922
10.10000,-1.68306,-2.01052
10.15000,-1.69160,-2.01668
10.20000,-1.70013,-2.03046
10.25000,-1.70826,-2.03490
10.30000,-1.71666,-2.04721
10.35000,-1.72533,-2.05316
10.40000,-1.73333,-2.06437
10.45000,-1.74160,-2.07107
10.50000,-1.75013,-2.08177
10.55000,-1.75840,-2.08911
10.60000,-1.76666,-2.09729
10.65000,-1.77506,-2.10801
10.70000,-1.78333,-2.11480
10.75000,-1.79173,-2.12382
10.80000,-1.79986,-2.13209
10.85000,-1.80800,-2.14046
10.90000,-1.81666,-2.14988
10.95000,-1.82493,-2.15717
11.00000,-1.83306,-2.16702
11.05000,-1.84173,-2.17413
11.10000,-1.85013,-2.18481
11.15000,-1.85826,-2.19096
11.20000,-1.86653,-2.20212
11.25000,-1.87520,-2.20693
11.30000,-1.88333,-2.21788
11.35000,-1.89146,-2.22464
11.40000,-1.89986,-2.23277
11.45000,-1.90800,-2.24050
11.50000,-1.91626,-2.24973
11.55000,-1.92466,-2.25576
11.60000,-1.93320,-2.26637
11.65000,-1.94133,-2.27270
11.70000,-1.94973,-2.28226
11.75000,-1.95800,-2.28911
11.80000,-1.96653,-2.29780
11.85000,-1.97493,-2.30687
11.90000,-1.98320,-2.31429
11.95000,-1.99173,-2.32087
12.00000,-2.00013,-2.33049
12.05000,-2.00826,-2.33851
12.10000,-2.01640,-2.34414
12.15000,-2.02506,-2.35412
12.20000,-2.03319,-2.36073
12.25000,-2.04133,-2.36849
12.30000,-2.05000,-2.37556
12.35000,-2.05826,-2.38461
12.40000,-2.06640,-2.39232
12.45000,-2.07480,-2.39919
12.50000,-2.08333,-2.40743
12.55000,-2.09159,-2.41595
12.60000,-2.09986,-2.42248
12.65000,-2.10839,-2.43176
12.70000,-2.11666,-2.43842
12.75000,-2.12493,-2.44722
12.80000,-2.13333,-2.45414
12.85000,-2.14173,-2.46100
12.90000,-2.14999,-2.47019
12.95000,-2.15826,-2.47703
13.00000,-2.16653,-2.48388
13.05000,-2.17506,-2.49121
13.10000,-2.18319,-2.49996
13.15000,-2.19146,-2.50499
13.20000,-2.19999,-2.51540
13.25000,-2.20826,-2.51917
13.30000,-2.21639,-2.52913
13.35000,-2.22493,-2.53520
13.40000,-2.23346,-2.54306
13.45000,-2.24146,-2.55103
13.50000,-2.24986,-2.55766
13.55000,-2.25839,-2.56514
13.60000,-2.26653,-2.57309
13.65000,-2.27493,-2.57825
13.70000,-2.28333,-2.58755
13.75000,-2.29173,-2.59281
13.80000,-2.29986,-2.60041
13.85000,-2.30813,-2.60615
13.90000,-2.31639,-2.61411
13.95000,-2.32479,-2.61862
14.00000,-2.33306,-2.62758
14.05000,-2.34133,-2.63353
14.10000,-2.34999,-2.64146
14.15000,-2.35826,-2.64750
14.20000,-2.36639,-2.65549
14.25000,-2.37493,-2.66049
14.30000,-2.38346,-2.66924
14.35000,-2.39159,-2.67487
14.40000,-2.39986,-2.68161
14.45000,-2.40853,-2.68805
14.50000,-2.41653,-2.69541
14.55000,-2.42479,-2.70066
14.60000,-2.43333,-2.70870
14.65000,-2.44146,-2.71380
14.70000,-2.44973,-2.72092
14.75000,-2.45813,-2.72637
14.80000,-2.46639,-2.73333
14.85000,-2.47453,-2.73879
14.90000,-2.48293,-2.74606
14.95000,-2.49133,-2.75158
15.00000,-2.49986,-2.75850
15.05000,-2.50826,-2.76303
15.10000,-2.51653,-2.75177
15.15000,-2.52506,-2.75286
15.20000,-2.53333,-2.75479
15.25000,-2.54146,-2.75484
15.30000,-2.54986,-2.75050
15.35000,-2.55839,-2.75285
15.40000,-2.56653,-2.76289
15.45000,-2.57466,-2.76923
15.50000,-2.58319,-2.77801
15.55000,-2.59159,-2.78332
15.60000,-2.59973,-2.78824
15.65000,-2.60813,-2.79537
15.70000,-2.61666,-2.80279
15.75000,-2.62479,-2.80757
15.80000,-2.63306,-2.81543
15.85000,-2.64173,-2.82012
15.90000,-2.64999,-2.82903
15.95000,-2.65826,-2.83433
16.00000,-2.66666,-2.84128
16.05000,-2.67506,-2.84455
16.10000,-2.68346,-2.85278
16.15000,-2.69159,-2.85353
16.20000,-2.69986,-2.85692
16.25000,-2.70826,-2.85056
16.30000,-2.71653,-2.78772
16.35000,-2.72466,-2.68839
16.40000,-2.73319,-2.71699
16.45000,-2.74146,-2.73734
16.50000,-2.74973,-2.75242
16.55000,-2.75826,-2.76285
16.60000,-2.76679,-2.77236
16.65000,-2.77493,-2.77931
16.70000,-2.78333,-2.77650
16.75000,-2.79186,-2.78488
16.80000,-2.79999,-2.78549
16.85000,-2.80826,-2.79691
16.90000,-2.81666,-2.80936
16.95000,-2.82493,-2.81976
17.00000,-2.83319,-2.82969
17.05000,-2.84146,-2.83572
17.10000,-2.84986,-2.84471
17.15000,-2.85839,-2.85616
17.20000,-2.86653,-2.85913
17.25000,-2.87466,-2.86442
17.30000,-2.88333,-2.87259
17.35000,-2.89173,-2.88191
17.40000,-2.89986,-2.88817
17.45000,-2.90826,-2.89609
17.50000,-2.91679,-2.85539
17.55000,-2.92493,-2.86748
17.60000,-2.93319,-2.88061
17.65000,-2.94173,-2.88985
17.70000,-2.94986,-2.90290
17.75000,-2.95813,-2.91031
17.80000,-2.96653,-2.91977
17.85000,-2.97479,-2.92913
17.90000,-2.98293,-2.93498
17.95000,-2.99133,-2.94315
18.00000,-2.99973,-2.95141
18.05000,-3.00799,-2.95795
18.10000,-3.01639,-2.96717
18.15000,-3.02479,-2.97295
18.20000,-3.03333,-2.98052
18.25000,-3.04159,-2.98812
18.30000,-3.04986,-2.99212
18.35000,-3.05826,-2.99812
18.40000,-3.06666,-3.00516
18.45000,-3.07479,-3.01229
18.50000,-3.08319,-3.01721
18.55000,-3.09186,-3.02406
18.60000,-3.09986,-3.03080
18.65000,-3.10799,-3.03500
18.70000,-3.11653,-3.04072
18.75000,-3.12479,-3.04671
18.80000,-3.13293,-3.05379
18.85000,-3.14133,-3.05643
18.90000,-3.14999,-3.06437
18.95000,-3.15813,-3.07061
19.00000,-3.16653,-3.07488
19.05000,-3.17506,-3.08066
19.10000,-3.18333,-3.08625
19.15000,-3.19159,-3.09043
19.20000,-3.19999,-3.09857
19.25000,-3.20853,-3.09838
19.30000,-3.21679,-3.10841
19.35000,-3.22493,-3.11001
19.40000,-3.23319,-3.11618
19.45000,-3.24173,-3.11925
19.50000,-3.24986,-3.12657
19.55000,-3.25813,-3.12863
19.60000,-3.26666,-3.13604
19.65000,-3.27493,-3.13863
19.70000,-3.28306,-3.14592
19.75000,-3.29159,-3.14822
19.80000,-3.30013,-3.15583
19.85000,-3.30813,-3.15819
19.90000,-3.31653,-3.16494
19.95000,-3.32519,-3.16585
20.00000,-3.33333,-3.17491
20.05000,-3.34159,-3.17579
20.10000,-3.35013,-3.18283
20.15000,-3.35839,-3.18580
20.20000,-3.36666,-3.19057
20.25000,-3.37493,-3.19466
20.30000,-3.38319,-3.19929
20.35000,-3.39159,-3.20288
20.40000,-3.39986,-3.20719
20.45000,-3.40799,-3.21140
20.50000,-3.41666,-3.21480
20.55000,-3.42493,-3.21981
20.60000,-3.43292,-3.22150
20.65000,-3.44146,-3.22694
20.70000,-3.44999,-3.23033
20.75000,-3.45812,-3.23398
20.80000,-3.46652,-3.23746
20.85000,-3.47506,-3.24167
20.90000,-3.48319,-3.24454
20.95000,-3.49146,-3.24892
21.00000,-3.49986,-3.25101
21.05000,-3.50812,-3.25575
21.10000,-3.51626,-3.25754
21.15000,-3.52479,-3.26180
21.20000,-3.53306,-3.26518
21.25000,-3.54132,-3.26814
21.30000,-3.54972,-3.27036
21.35000,-3.55799,-3.27394
21.40000,-3.56652,-3.27638
21.45000,-3.57492,-3.27886
21.50000,-3.58319,-3.28286
21.55000,-3.59159,-3.28423
21.60000,-3.60012,-3.28741
21.65000,-3.60826,-3.29203
21.70000,-3.61652,-3.29225
21.75000,-3.62506,-3.29781
21.80000,-3.63319,-3.29937
21.85000,-3.64119,-3.30195
21.90000,-3.64972,-3.30492
21.95000,-3.65812,-3.30761
22.00000,-3.66626,-3.31017
22.05000,-3.67466,-3.31373
22.10000,-3.68332,-3.31596
22.15000,-3.69159,-3.31906
22.20000,-3.69986,-3.32264
22.25000,-3.70852,-3.32472
22.30000,-3.71679,-3.32855
22.35000,-3.72506,-3.32998
22.40000,-3.73332,-3.33419
22.45000,-3.74172,-3.33526
22.50000,-3.74999,-3.33786
22.55000,-3.75826,-3.34241
22.60000,-3.76666,-3.34274
22.65000,-3.77506,-3.34751
22.70000,-3.78332,-3.34648
22.75000,-3.79146,-3.35505
22.80000,-3.79986,-3.35149
22.85000,-3.80812,-3.35963
22.90000,-3.81639,-3.35511
22.95000,-3.82479,-3.36557
23.00000,-3.83346,-3.36154
23.05000,-3.84159,-3.37064
23.10000,-3.84986,-3.36306
23.15000,-3.85852,-3.37844
23.20000,-3.86679,-3.36802
23.25000,-3.87506,-3.38088
23.30000,-3.88346,-3.37043
23.35000,-3.89172,-3.38564
23.40000,-3.89999,-3.37470
23.45000,-3.90826,-3.38721
23.50000,-3.91652,-3.37620
23.55000,-3.92492,-3.39147
23.60000,-3.93319,-3.37997
23.65000,-3.94132,-3.39212
23.70000,-3.94986,-3.38200
23.75000,-3.95812,-3.39696
23.80000,-3.96639,-3.38640
23.85000,-3.97492,-3.39732
23.90000,-3.98332,-3.38934
23.95000,-3.99146,-3.40212
24.00000,-3.99986,-3.39118
24.05000,-4.00839,-3.40312
24.10000,-4.01652,-3.39559
24.15000,-4.02479,-3.40582
24.20000,-4.03319,-3.40003
24.25000,-4.04159,-3.40731
24.30000,-4.04972,-3.40568
24.35000,-4.05812,-3.40908
24.40000,-4.06639,-3.40977
24.45000,-4.07466,-3.41168
24.50000,-4.08292,-3.41449
24.55000,-4.09132,-3.41625
24.60000,-4.09986,-3.41887
24.65000,-4.10826,-3.42098
24.70000,-4.11652,-3.42373
24.75000,-4.12492,-3.42366
24.80000,-4.13332,-3.42664
24.85000,-4.14146,-3.42714
24.90000,-4.14972,-3.43052
24.95000,-4.15839,-3.42961
25.00000,-4.16652,-3.43464
25.05000,-4.17452,-3.43291
25.10000,-4.18319,-3.43716
25.15000,-4.19159,-3.43675
25.20000,-4.19959,-3.44024
25.25000,-4.20812,-3.43880
25.30000,-4.21666,-3.44284
25.35000,-4.22492,-3.44275
25.40000,-4.23319,-3.44642
25.45000,-4.24172,-3.44736
25.50000,-4.24999,-3.45004
25.55000,-4.25839,-3.45071
25.60000,-4.26679,-3.45472
25.65000,-4.27506,-3.45444
25.70000,-4.28346,-3.45804
25.75000,-4.29172,-3.45883
25.80000,-4.29986,-3.46215
25.85000,-4.30839,-3.46197
25.90000,-4.31666,-3.46599
25.95000,-4.32466,-3.46659
26.00000,-4.33319,-3.46927
26.05000,-4.34172,-3.47176
26.10000,-4.34986,-3.47415
26.15000,-4.35826,-3.47668
26.20000,-4.36679,-3.47901
26.25000,-4.37492,-3.48212
26.30000,-4.38332,-3.48334
26.35000,-4.39186,-3.48594
26.40000,-4.39999,-3.48846
26.45000,-4.40826,-3.49079
26.50000,-4.41679,-3.49243
26.55000,-4.42492,-3.49548
26.60000,-4.43319,-3.49634
26.65000,-4.44159,-3.50038
26.70000,-4.44986,-3.50018
26.75000,-4.45812,-3.50343
26.80000,-4.46639,-3.50589
26.85000,-4.47452,-3.50723
26.90000,-4.48319,-3.50929
26.95000,-4.49159,-3.51279
27.00000,-4.49972,-3.51351
27.05000,-4.50826,-3.51505
27.10000,-4.51679,-3.51780
27.15000,-4.52492,-3.51913
27.20000,-4.53332,-3.52093
27.25000,-4.54186,-3.52197
27.30000,-4.54986,-3.52533
27.35000,-4.55812,-3.52486
27.40000,-4.56652,-3.52670
27.45000,-4.57479,-3.52779
27.50000,-4.58306,-3.53029
27.55000,-4.59132,-3.53035
27.60000,-4.59986,-3.53360
27.65000,-4.60812,-3.53421
27.70000,-4.61639,-3.53628
27.75000,-4.62479,-3.53742
27.80000,-4.63332,-3.53999
27.85000,-4.64172,-3.54031
27.90000,-4.64986,-3.54297
27.95000,-4.65839,-3.54306
28.00000,-4.66679,-3.54646
28.05000,-4.67479,-3.54757
28.10000,-4.68319,-3.54850
28.15000,-4.69172,-3.55134
28.20000,-4.69986,-3.55407
28.25000,-4.70812,-3.55375
28.30000,-4.71666,-3.55686
28.35000,-4.72492,-3.55831
28.40000,-4.73306,-3.55998
28.45000,-4.74145,-3.56099
28.50000,-4.74986,-3.56333
28.55000,-4.75812,-3.56500
28.60000,-4.76639,-3.56659
28.65000,-4.77506,-3.56832
28.70000,-4.78332,-3.57130
28.75000,-4.79172,-3.57238
28.80000,-4.80012,-3.57463
28.85000,-4.80839,-3.57498
28.90000,-4.81666,-3.57798
28.95000,-4.82506,-3.57839
29.00000,-4.83319,-3.58028
29.05000,-4.84159,-3.58117
29.10000,-4.84985,-3.58332
29.15000,-4.85799,-3.58454
29.20000,-4.86665,-3.58611
29.25000,-4.87492,-3.58879
29.30000,-4.88305,-3.58944
29.35000,-4.89159,-3.59088
29.40000,-4.90012,-3.59293
29.45000,-4.90825,-3.59356
29.50000,-4.91652,-3.59444
29.55000,-4.92519,-3.59569
29.60000,-4.93332,-3.59765
29.65000,-4.94159,-3.59795
29.70000,-4.95012,-3.60026
29.75000,-4.95825,-3.60040
29.80000,-4.96639,-3.60170
29.85000,-4.97479,-3.60223
29.90000,-4.98319,-3.60344
29.95000,-4.99159,-3.60407
30.00000,-4.99985,-3.60568
30.05000,-5.00812,-3.60601
30.10000,-5.01679,-3.60716
30.15000,-5.02492,-3.60872
30.20000,-5.03305,-3.61000
30.25000,-5.04172,-3.60996
30.30000,-5.05012,-3.61220
30.35000,-5.05825,-3.61227
30.40000,-5.06652,-3.61389
30.45000,-5.07519,-3.61469
30.50000,-5.08319,-3.61596
30.55000,-5.09145,-3.61649
30.60000,-5.09985,-3.61689
30.65000,-5.10812,-3.61989
30.70000,-5.11639,-3.61892
30.75000,-5.12465,-3.62134
30.80000,-5.13305,-3.62132
30.85000,-5.14132,-3.62382
30.90000,-5.14972,-3.62453
30.95000,-5.15799,-3.62558
31.00000,-5.16652,-3.62814
31.05000,-5.17492,-3.62734
31.10000,-5.18305,-3.62866
31.15000,-5.19159,-3.62837
31.20000,-5.19999,-3.62994
31.25000,-5.20812,-3.63093
31.30000,-5.21652,-3.63045
31.35000,-5.22505,-3.63195
31.40000,-5.23319,-3.63374
31.45000,-5.24132,-3.63153
31.50000,-5.24985,-3.63545
31.55000,-5.25812,-3.63366
31.60000,-5.26639,-3.63731
31.65000,-5.27479,-3.63603
31.70000,-5.28332,-3.64002
31.75000,-5.29145,-3.63716
31.80000,-5.29985,-3.64216
31.85000,-5.30839,-3.63966
31.90000,-5.31665,-3.64314
31.95000,-5.32492,-3.64214
32.00000,-5.33332,-3.64414
32.05000,-5.34172,-3.64424
32.10000,-5.34999,-3.64575
32.15000,-5.35839,-3.64632
32.20000,-5.36652,-3.64627
32.25000,-5.37505,-3.64912
32.30000,-5.38319,-3.64773
32.35000,-5.39145,-3.64917
32.40000,-5.39999,-3.64984
32.45000,-5.40825,-3.65056
32.50000,-5.41639,-3.65097
32.55000,-5.42505,-3.65037
32.60000,-5.43332,-3.65332
32.65000,-5.44145,-3.65061
32.70000,-5.44985,-3.65397
32.75000,-5.45852,-3.65157
32.80000,-5.46665,-3.65574
32.85000,-5.47505,-3.65238
32.90000,-5.48345,-3.65593
32.95000,-5.49172,-3.65395
33.00000,-5.49999,-3.65691
33.05000,-5.50825,-3.65404
33.10000,-5.51652,-3.65755
33.15000,-5.52479,-3.65576
33.20000,-5.53319,-3.65809
33.25000,-5.54145,-3.65590
33.30000,-5.54999,-3.65895
33.35000,-5.55825,-3.65810
33.40000,-5.56639,-3.65977
33.45000,-5.57492,-3.65763
33.50000,-5.58332,-3.66056
33.55000,-5.59145,-3.65802
33.60000,-5.59985,-3.66132
33.65000,-5.60852,-3.65738
33.70000,-5.61652,-3.66529
33.75000,-5.62479,-3.65411
33.80000,-5.63319,-3.66577
33.85000,-5.64132,-3.65709
33.90000,-5.64959,-3.66370
33.95000,-5.65799,-3.65839
34.00000,-5.66652,-3.66673
34.05000,-5.67479,-3.65646
34.10000,-5.68305,-3.66794
34.15000,-5.69145,-3.65746
34.20000,-5.69985,-3.66700
34.25000,-5.70825,-3.66086
34.30000,-5.71639,-3.66645
34.35000,-5.72492,-3.66106
34.40000,-5.73332,-3.66839
34.45000,-5.74145,-3.66319
34.50000,-5.74985,-3.66914
34.55000,-5.75839,-3.66355
34.60000,-5.76652,-3.67188
34.65000,-5.77479,-3.66407
34.70000,-5.78319,-3.67229
34.75000,-5.79145,-3.66641
34.80000,-5.79972,-3.67315
34.85000,-5.80812,-3.67171
34.90000,-5.81665,-3.67186
34.95000,-5.82492,-3.67613
35.00000,-5.83319,-3.67414
35.05000,-5.84172,-3.67605
35.10000,-5.84999,-3.67745
35.15000,-5.85839,-3.67817
35.20000,-5.86679,-3.68016
35.25000,-5.87505,-3.67885
35.30000,-5.88332,-3.68371
35.35000,-5.89159,-3.68121
35.40000,-5.89985,-3.68393
35.45000,-5.90825,-3.68378
35.50000,-5.91652,-3.68672
35.55000,-5.92479,-3.68635
35.60000,-5.93319,-3.68771
35.65000,-5.94145,-3.68959
35.70000,-5.94959,-3.68946
35.75000,-5.95812,-3.69077
35.80000,-5.96665,-3.69603
35.85000,-5.97479,-3.69076
35.90000,-5.98332,-3.70103
35.95000,-5.99199,-3.69260
36.00000,-5.99999,-3.70435
36.05000,-6.00825,-3.69703
36.10000,-6.01679,-3.70761
36.15000,-6.02505,-3.69926
36.20000,-6.03319,-3.70866
36.25000,-6.04159,-3.70317
36.30000,-6.04985,-3.71122
36.35000,-6.05825,-3.70730
36.40000,-6.06652,-3.71115
36.45000,-6.07465,-3.71271
36.50000,-6.08332,-3.71503
36.55000,-6.09159,-3.71406
36.60000,-6.09972,-3.72141
36.65000,-6.10825,-3.71480
36.70000,-6.11679,-3.72512
36.75000,-6.12492,-3.72016
36.80000,-6.13319,-3.72759
36.85000,-6.14172,-3.72350
36.90000,-6.14985,-3.73099
36.95000,-6.15812,-3.72754
37.00000,-6.16652,-3.73254
37.05000,-6.17479,-3.73701
37.10000,-6.18305,-3.72966
37.15000,-6.19132,-3.74331
37.20000,-6.19972,-3.73315
37.25000,-6.20798,-3.74747
37.30000,-6.21638,-3.73631
37.35000,-6.22465,-3.75222
37.40000,-6.23318,-3.74210
37.45000,-6.24145,-3.75537
37.50000,-6.24972,-3.74820
37.55000,-6.25825,-3.75265
37.60000,-6.26665,-3.75653
37.65000,-6.27492,-3.75430
37.70000,-6.28318,-3.76177
37.75000,-6.29172,-3.75753
37.80000,-6.29972,-3.76443
37.85000,-6.30798,-3.76186
37.90000,-6.31652,-3.76834
37.95000,-6.32478,-3.76479
38.00000,-6.33305,-3.77681
38.05000,-6.34145,-3.76589
38.10000,-6.34998,-3.78195
38.15000,-6.35825,-3.77314
38.20000,-6.36665,-3.78196
38.25000,-6.37518,-3.78152
38.30000,-6.38332,-3.78367
38.35000,-6.39172,-3.78404
38.40000,-6.39998,-3.78755
38.45000,-6.40838,-3.78974
38.50000,-6.41665,-3.78983
38.55000,-6.42505,-3.79479
38.60000,-6.43332,-3.79320
38.65000,-6.44172,-3.79855
38.70000,-6.44998,-3.79923
38.75000,-6.45812,-3.80136
38.80000,-6.46665,-3.80014
38.85000,-6.47478,-3.80928
38.90000,-6.48305,-3.80164
38.95000,-6.49158,-3.81218
39.00000,-6.49998,-3.80910
39.05000,-6.50825,-3.81616
39.10000,-6.51665,-3.81328
39.15000,-6.52532,-3.81850
39.20000,-6.53332,-3.82034
39.25000,-6.54158,-3.82323
39.30000,-6.55012,-3.82186
39.35000,-6.55838,-3.82762
39.40000,-6.56665,-3.82322
39.45000,-6.57492,-3.83604
39.50000,-6.58318,-3.82463
39.55000,-6.59158,-3.83718
39.60000,-6.59985,-3.83020
39.65000,-6.60812,-3.83993
39.70000,-6.61665,-3.83299
39.75000,-6.62492,-3.84372
39.80000,-6.63305,-3.83887
39.85000,-6.64172,-3.84505
39.90000,-6.65012,-3.84311
39.95000,-6.65825,-3.84859
40.00000,-6.66652,-3.84588
40.05000,-6.67518,-3.85229
40.10000,-6.68318,-3.84956
40.15000,-6.69145,-3.85409
40.20000,-6.69998,-3.84945
40.25000,-6.70812,-3.86126
40.30000,-6.71638,-3.85363
40.35000,-6.72478,-3.85937
40.40000,-6.73318,-3.85868
40.45000,-6.74145,-3.86259
40.50000,-6.74972,-3.86378
40.55000,-6.75812,-3.86340
40.60000,-6.76665,-3.86486
40.65000,-6.77492,-3.87085
40.70000,-6.78318,-3.86649
40.75000,-6.79158,-3.87361
40.80000,-6.79998,-3.86989
40.85000,-6.80825,-3.87786
40.90000,-6.81665,-3.87361
40.95000,-6.82518,-3.88211
41.00000,-6.83318,-3.87844
41.05000,-6.84132,-3.88436
41.10000,-6.84985,-3.88211
41.15000,-6.85812,-3.88942
41.20000,-6.86625,-3.88549
41.25000,-6.87465,-3.89138
41.30000,-6.88318,-3.89197
41.35000,-6.89145,-3.89457
41.40000,-6.89972,-3.89557
41.45000,-6.90825,-3.89860
41.50000,-6.91638,-3.90077
41.55000,-6.92478,-3.90127
41.60000,-6.93318,-3.90538
41.65000,-6.94158,-3.90622
41.70000,-6.94985,-3.90793
41.75000,-6.95812,-3.91001
41.80000,-6.96638,-3.91108
41.85000,-6.97492,-3.91018
41.90000,-6.98318,-3.91690
41.95000,-6.99132,-3.91642
42.00000,-6.99985,-3.91848
42.05000,-7.00825,-3.91901
42.10000,-7.01638,-3.92308
42.15000,-7.02492,-3.92204
42.20000,-7.03345,-3.92643
42.25000,-7.04158,-3.92683
42.30000,-7.04998,-3.92986
42.35000,-7.05852,-3.92985
42.40000,-7.06665,-3.93186
42.45000,-7.07492,-3.93530
42.50000,-7.08345,-3.93432
42.55000,-7.09158,-3.93613
42.60000,-7.09985,-3.93770
42.65000,-7.10838,-3.94021
42.70000,-7.11665,-3.93973
42.75000,-7.12505,-3.94208
42.80000,-7.13318,-3.94354
42.85000,-7.14145,-3.94604
42.90000,-7.14998,-3.94572
42.95000,-7.15838,-3.95050
43.00000,-7.16652,-3.94827
43.05000,-7.17505,-3.95611
43.10000,-7.18345,-3.95220
43.15000,-7.19158,-3.96160
43.20000,-7.19985,-3.95237
43.25000,-7.20852,-3.96578
43.30000,-7.21652,-3.96035
43.35000,-7.22478,-3.96877
43.40000,-7.23332,-3.96061
43.45000,-7.24145,-3.97340
43.50000,-7.24958,-3.96517
43.55000,-7.25798,-3.97552
43.60000,-7.26638,-3.96714
43.65000,-7.27465,-3.98181
43.70000,-7.28305,-3.97041
43.75000,-7.29145,-3.98195
43.80000,-7.29985,-3.97470
43.85000,-7.30825,-3.98568
43.90000,-7.31638,-3.98060
43.95000,-7.32492,-3.98647
44.00000,-7.33332,-3.98414
44.05000,-7.34145,-3.98920
44.10000,-7.34972,-3.99032
44.15000,-7.35838,-3.99214
44.20000,-7.36652,-3.99532
44.25000,-7.37465,-3.99192
44.30000,-7.38332,-4.00246
44.35000,-7.39158,-3.99662
44.40000,-7.39972,-4.00535
44.45000,-7.40798,-3.99803
44.50000,-7.41665,-4.01214
44.55000,-7.42478,-4.00312
44.60000,-7.43318,-4.01543
44.65000,-7.44172,-4.00795
44.70000,-7.44998,-4.02103
44.75000,-7.45825,-4.01308
44.80000,-7.46665,-4.02481
44.85000,-7.47505,-4.01700
44.90000,-7.48332,-4.02859
44.95000,-7.49172,-4.02507
45.00000,-7.49985,-4.03119
45.05000,-7.50825,-4.02979
45.10000,-7.51665,-4.03690
45.15000,-7.52465,-4.03626
45.20000,-7.53318,-4.04001
45.25000,-7.54145,-4.04103
45.30000,-7.54971,-4.04589
45.35000,-7.55825,-4.04661
45.40000,-7.56678,-4.05187
45.45000,-7.57478,-4.05251
45.50000,-7.58318,-4.05609
45.55000,-7.59185,-4.05889
45.60000,-7.59998,-4.06154
45.65000,-7.60825,-4.06442
45.70000,-7.61665,-4.06645
45.75000,-7.62491,-4.07073
45.80000,-7.63318,-4.06747
45.85000,-7.64145,-4.07944
45.90000,-7.64985,-4.07260
45.95000,-7.65825,-4.08193
46.00000,-7.66651,-4.07766
46.05000,-7.67465,-4.08831
46.10000,-7.68331,-4.08043
46.15000,-7.69158,-4.09393
46.20000,-7.69971,-4.08441
46.25000,-7.70825,-4.09830
46.30000,-7.71665,-4.08658
46.35000,-7.72478,-4.10598
46.40000,-7.73318,-4.08916
46.45000,-7.74185,-4.10763
46.50000,-7.74985,-4.10235
46.55000,-7.75811,-4.10439
46.60000,-7.76651,-4.10670
46.65000,-7.77478,-4.11207
46.70000,-7.78291,-4.11038
46.75000,-7.79145,-4.11596
46.80000,-7.79985,-4.11565
46.85000,-7.80798,-4.12388
46.90000,-7.81638,-4.11716
46.95000,-7.82478,-4.13103
47.00000,-7.83331,-4.12178
47.05000,-7.84158,-4.13974
47.10000,-7.84971,-4.12585
47.15000,-7.85825,-4.14138
47.20000,-7.86678,-4.13632
47.25000,-7.87478,-4.14427
47.30000,-7.88318,-4.14068
47.35000,-7.89171,-4.15048
47.40000,-7.89985,-4.14632
47.45000,-7.90811,-4.15597
47.50000,-7.91651,-4.14820
47.55000,-7.92478,-4.16197
47.60000,-7.93291,-4.15157
47.65000,-7.94131,-4.16896
47.70000,-7.94998,-4.15597
47.75000,-7.95825,-4.17547
47.80000,-7.96651,-4.16429
47.85000,-7.97505,-4.17898
47.90000,-7.98331,-4.17189
47.95000,-7.99158,-4.18470
48.00000,-7.99998,-4.17560
48.05000,-8.00838,-4.19110
48.10000,-8.01678,-4.18009
48.15000,-8.02491,-4.19732
48.20000,-8.03318,-4.18472
48.25000,-8.04171,-4.20180
48.30000,-8.04985,-4.19213
48.35000,-8.05811,-4.20600
48.40000,-8.06665,-4.19838
48.45000,-8.07491,-4.21146
48.50000,-8.08305,-4.20311
48.55000,-8.09158,-4.21689
48.60000,-8.09998,-4.21279
48.65000,-8.10811,-4.21879
48.70000,-8.11651,-4.21701
48.75000,-8.12518,-4.22598
48.80000,-8.13318,-4.22044
48.85000,-8.14145,-4.23249
48.90000,-8.14998,-4.22420
48.95000,-8.15838,-4.23781
49.00000,-8.16678,-4.22878
49.05000,-8.17505,-4.24514
49.10000,-8.18345,-4.23299
49.15000,-8.19171,-4.24777
49.20000,-8.19985,-4.23914
49.25000,-8.20798,-4.25047
49.30000,-8.21665,-4.24468
49.35000,-8.22491,-4.25017
49.40000,-8.23305,-4.25672
49.45000,-8.24158,-4.25119
49.50000,-8.25011,-4.26079
49.55000,-8.25811,-4.25657
49.60000,-8.26651,-4.26683
49.65000,-8.27505,-4.26070
49.70000,-8.28318,-4.27179
49.75000,-8.29131,-4.26616
49.80000,-8.29971,-4.27497
49.85000,-8.30811,-4.27260
49.90000,-8.31638,-4.28065
49.95000,-8.32478,-4.27679
50.00000,-8.33305,-4.28574
50.05000,-8.34131,-4.28411
50.10000,-8.34958,-4.28749
50.15000,-8.35785,-4.28847
50.20000,-8.36651,-4.29473
50.25000,-8.37505,-4.29669
50.30000,-8.38318,-4.29988
50.35000,-8.39171,-4.30110
50.40000,-8.40025,-4.30593
50.45000,-8.40825,-4.30822
50.50000,-8.41651,-4.30888
50.55000,-8.42518,-4.31400
50.60000,-8.43318,-4.31462
50.65000,-8.44131,-4.31972
50.70000,-8.44985,-4.32073
50.75000,-8.45811,-4.32313
50.80000,-8.46625,-4.32856
50.85000,-8.47465,-4.32836
50.90000,-8.48318,-4.33441
50.95000,-8.49158,-4.33526
51.00000,-8.49998,-4.34121
51.05000,-8.50851,-4.34120
51.10000,-8.51678,-4.34768
51.15000,-8.52505,-4.34638
51.20000,-8.53345,-4.35261
51.25000,-8.54171,-4.35349
51.30000,-8.55011,-4.35809
51.35000,-8.55838,-4.35779
51.40000,-8.56638,-4.36266
51.45000,-8.57505,-4.36238
51.50000,-8.58331,-4.37017
51.55000,-8.59131,-4.36528
51.60000,-8.59985,-4.37575
51.65000,-8.60825,-4.37223
51.70000,-8.61638,-4.38323
51.75000,-8.62491,-4.37544
51.80000,-8.63345,-4.38863
51.85000,-8.64158,-4.38449
51.90000,-8.64985,-4.39201
51.95000,-8.65851,-4.38586
52.00000,-8.66665,-4.39944
52.05000,-8.67491,-4.38973
52.10000,-8.68331,-4.40322
52.15000,-8.69158,-4.39153
52.20000,-8.69985,-4.40886
52.25000,-8.70811,-4.39351
52.30000,-8.71638,-4.41234
52.35000,-8.72491,-4.39674
52.40000,-8.73305,-4.41637
52.45000,-8.74131,-4.40323
52.50000,-8.74998,-4.41772
52.55000,-8.75825,-4.40894
52.60000,-8.76638,-4.42418
52.65000,-8.77491,-4.41204
52.70000,-8.78358,-4.42771
52.75000,-8.79158,-4.41670
52.80000,-8.79998,-4.43184
52.85000,-8.80851,-4.41975
52.90000,-8.81665,-4.43377
52.95000,-8.82491,-4.42370
53.00000,-8.83345,-4.43628
53.05000,-8.84158,-4.42776
53.10000,-8.84971,-4.43668
53.15000,-8.85811,-4.43174
53.20000,-8.86638,-4.44019
53.25000,-8.87465,-4.43412
53.30000,-8.88305,-4.44272
53.35000,-8.89131,-4.43853
53.40000,-8.89985,-4.44582
53.45000,-8.90824,-4.44464
53.50000,-8.91638,-4.44777
53.55000,-8.92491,-4.44783
53.60000,-8.93331,-4.45326
53.65000,-8.94144,-4.45344
53.70000,-8.94971,-4.45205
53.75000,-8.95838,-4.45784
53.80000,-8.96638,-4.45893
53.85000,-8.97465,-4.45764
53.90000,-8.98331,-4.46228
53.95000,-8.99171,-4.46338
54.00000,-8.99985,-4.46498
54.05000,-9.00811,-4.46267
54.10000,-9.01665,-4.47015
54.15000,-9.02478,-4.46593
54.20000,-9.03318,-4.47166
54.25000,-9.04171,-4.46953
54.30000,-9.04998,-4.47442
54.35000,-9.05838,-4.47292
54.40000,-9.06665,-4.47897
54.45000,-9.07504,-4.47401
54.50000,-9.08331,-4.48161
54.55000,-9.09144,-4.47911
54.60000,-9.09971,-4.48238
54.65000,-9.10824,-4.48159
54.70000,-9.11651,-4.49043
54.75000,-9.12464,-4.48524
54.80000,-9.13331,-4.49261
54.85000,-9.14158,-4.48837
54.90000,-9.14971,-4.49779
54.95000,-9.15824,-4.49353
55.00000,-9.16691,-4.50065
55.05000,-9.17491,-4.49714
55.10000,-9.18318,-4.50524
55.15000,-9.19184,-4.50160
55.20000,-9.19998,-4.50716
55.25000,-9.20824,-4.50535
55.30000,-9.21664,-4.51227
55.35000,-9.22504,-4.50783
55.40000,-9.23331,-4.51409
55.45000,-9.24158,-4.51433
55.50000,-9.24998,-4.51566
55.55000,-9.25838,-4.51771
55.60000,-9.26651,-4.51919
55.65000,-9.27464,-4.52033
55.70000,-9.28331,-4.52154
55.75000,-9.29158,-4.52559
55.80000,-9.29971,-4.52371
55.85000,-9.30824,-4.53005
55.90000,-9.31678,-4.52886
55.95000,-9.32478,-4.53296
56.00000,-9.33304,-4.53147
56.05000,-9.34184,-4.53693
56.10000,-9.34984,-4.53706
56.15000,-9.35811,-4.54025
56.20000,-9.36651,-4.53898
56.25000,-9.37478,-4.54728
56.30000,-9.38304,-4.54277
56.35000,-9.39144,-4.54872
56.40000,-9.39971,-4.55018
56.45000,-9.40798,-4.55253
56.50000,-9.41638,-4.55441
56.55000,-9.42478,-4.55700
56.60000,-9.43318,-4.56027
56.65000,-9.44158,-4.56301
56.70000,-9.44971,-4.56385
56.75000,-9.45824,-4.56547
56.80000,-9.46678,-4.56834
56.85000,-9.47478,-4.56921
56.90000,-9.48318,-4.57050
56.95000,-9.49171,-4.57233
57.00000,-9.49984,-4.57596
57.05000,-9.50798,-4.57525
57.10000,-9.51651,-4.57691
57.15000,-9.52491,-4.58062
57.20000,-9.53291,-4.58105
57.25000,-9.54131,-4.58222
57.30000,-9.54984,-4.58556
57.35000,-9.55811,-4.58731
57.40000,-9.56651,-4.58914
57.45000,-9.57491,-4.59206
57.50000,-9.58318,-4.59314
57.55000,-9.59144,-4.59445
57.60000,-9.59971,-4.59755
57.65000,-9.60811,-4.59746
57.70000,-9.61651,-4.60127
57.75000,-9.62491,-4.60267
57.80000,-9.63291,-4.60429
57.85000,-9.64158,-4.60436
57.90000,-9.64984,-4.61047
57.95000,-9.65798,-4.60885
58.00000,-9.66651,-4.61243
58.05000,-9.67491,-4.61431
58.10000,-9.68304,-4.61642
58.15000,-9.69158,-4.61734
58.20000,-9.70011,-4.62223
58.25000,-9.70824,-4.62157
58.30000,-9.71651,-4.62713
58.35000,-9.72518,-4.62498
58.40000,-9.73344,-4.63223
58.45000,-9.74171,-4.62900
58.50000,-9.75011,-4.63520
58.55000,-9.75838,-4.63362
58.60000,-9.76664,-4.63748
58.65000,-9.77491,-4.63697
58.70000,-9.78318,-4.64002
58.75000,-9.79158,-4.64074
58.80000,-9.79998,-4.64404
58.85000,-9.80798,-4.64295
58.90000,-9.81664,-4.64650
58.95000,-9.82504,-4.64565
59.00000,-9.83304,-4.65216
59.05000,-9.84171,-4.64674
59.10000,-9.85011,-4.65384
59.15000,-9.85824,-4.65230
59.20000,-9.86651,-4.65387
59.25000,-9.87518,-4.65355
59.30000,-9.88318,-4.65779
59.35000,-9.89144,-4.65510
59.40000,-9.89984,-4.65773
59.45000,-9.90811,-4.65697
59.50000,-9.91638,-4.66012
59.55000,-9.92478,-4.65905
59.60000,-9.93304,-4.66367
59.65000,-9.94144,-4.66080
59.70000,-9.94984,-4.66711
59.75000,-9.95811,-4.66461
59.80000,-9.96664,-4.66798
59.85000,-9.97504,-4.66817
59.90000,-9.98304,-4.67059
59.95000,-9.99158,-4.67021
60.00000,-10.00011,-4.67311
60.05000,-10.00824,-4.67328
60.10000,-10.01651,-4.67477
60.15000,-10.02504,-4.67510
60.20000,-10.03318,-4.67704
60.25000,-10.04131,-4.67682
60.30000,-10.04984,-4.67916
60.35000,-10.05824,-4.68068
60.40000,-10.06638,-4.68206
60.45000,-10.07478,-4.68331
60.50000,-10.08331,-4.68662
60.55000,-10.09158,-4.68798
60.60000,-10.09998,-4.69042
60.65000,-10.10837,-4.69321
60.70000,-10.11664,-4.69415
60.75000,-10.12491,-4.69535
60.80000,-10.13331,-4.69904
60.85000,-10.14171,-4.69912
60.90000,-10.14998,-4.70207
60.95000,-10.15824,-4.70337
61.00000,-10.16651,-4.70552
61.05000,-10.17504,-4.70674
61.10000,-10.18331,-4.71025
61.15000,-10.19144,-4.70907
61.20000,-10.19984,-4.71360
61.25000,-10.20811,-4.71354
61.30000,-10.21624,-4.71553
61.35000,-10.22491,-4.71673
61.40000,-10.23344,-4.72227
61.45000,-10.24158,-4.72206
61.50000,-10.24998,-4.72473
61.55000,-10.25864,-4.72760
61.60000,-10.26678,-4.72997
61.65000,-10.27491,-4.73039
61.70000,-10.28331,-4.73252
61.75000,-10.29171,-4.73485
61.80000,-10.29998,-4.73704
61.85000,-10.30824,-4.73787
61.90000,-10.31664,-4.74119
61.95000,-10.32504,-4.74297
62.00000,-10.33331,-4.74608
62.05000,-10.34131,-4.74570
62.10000,-10.34984,-4.74838
62.15000,-10.35824,-4.75166
62.20000,-10.36624,-4.75238
62.25000,-10.37491,-4.75406
62.30000,-10.38344,-4.75708
62.35000,-10.39144,-4.75853
62.40000,-10.39984,-4.75970
62.45000,-10.40837,-4.76210
62.50000,-10.41651,-4.76632
62.55000,-10.42478,-4.76681
62.60000,-10.43317,-4.76978
62.65000,-10.44131,-4.77094
62.70000,-10.44957,-4.77368
62.75000,-10.45797,-4.77527
62.80000,-10.46637,-4.77818
62.85000,-10.47464,-4.77916
62.90000,-10.48304,-4.78099
62.95000,-10.49144,-4.78340
63.00000,-10.49984,-4.78377
63.05000,-10.50824,-4.78788
63.10000,-10.51637,-4.78878
63.15000,-10.52491,-4.78896
63.20000,-10.53344,-4.79242
63.25000,-10.54144,-4.79392
63.30000,-10.54984,-4.79536
63.35000,-10.55837,-4.79714
63.40000,-10.56651,-4.80036
63.45000,-10.57477,-4.80134
63.50000,-10.58331,-4.80205
63.55000,-10.59157,-4.80545
63.60000,-10.59971,-4.80559
63.65000,-10.60811,-4.80897
63.70000,-10.61664,-4.81098
63.75000,-10.62491,-4.81395
63.80000,-10.63331,-4.81562
63.85000,-10.64171,-4.81844
63.90000,-10.64997,-4.82078
63.95000,-10.65824,-4.82068
64.00000,-10.66677,-4.82662
64.05000,-10.67504,-4.82473
64.10001,-10.68331,-4.82957
64.15000,-10.69171,-4.82894
64.20000,-10.69997,-4.83257
64.25000,-10.70837,-4.83182
64.30000,-10.71651,-4.83563
64.35001,-10.72464,-4.83437
64.40000,-10.73317,-4.83771
64.45000,-10.74157,-4.83976
64.50000,-10.74971,-4.84156
64.55000,-10.75837,-4.84207
64.60001,-10.76677,-4.84728
64.65000,-10.77491,-4.84597
64.70000,-10.78317,-4.84998
64.75000,-10.79184,-4.84996
64.80000,-10.79997,-4.85489
64.85001,-10.80824,-4.85453
64.90000,-10.81664,-4.85796
64.95000,-10.82504,-4.85959
65.00000,-10.83331,-4.86179
65.05000,-10.84157,-4.86414
65.10001,-10.84997,-4.86557
65.15000,-10.85837,-4.86835
65.20000,-10.86651,-4.87136
65.25000,-10.87451,-4.87043
65.30000,-10.88317,-4.87480
65.35001,-10.89157,-4.87630
65.40000,-10.89971,-4.88027
65.45000,-10.90824,-4.87986
65.50000,-10.91677,-4.88504
65.55000,-10.92477,-4.88501
65.60001,-10.93304,-4.88749
65.65000,-10.94171,-4.88957
65.70001,-10.94984,-4.89430
65.75000,-10.95811,-4.89304
65.80000,-10.96651,-4.89762
65.85001,-10.97477,-4.89748
65.90000,-10.98304,-4.90115
65.95001,-10.99144,-4.90175
66.00000,-10.99984,-4.90533
66.05000,-11.00797,-4.90680
66.10001,-11.01624,-4.91042
66.15000,-11.02464,-4.91221
66.20001,-11.03317,-4.91760
66.25000,-11.04157,-4.91851
66.30000,-11.04984,-4.92436
66.35001,-11.05837,-4.92321
66.40000,-11.06677,-4.93005
66.45001,-11.07477,-4.93002
66.50000,-11.08304,-4.93433
66.55000,-11.09171,-4.93583
66.60001,-11.09984,-4.94142
66.65000,-11.10797,-4.94035
66.70001,-11.11664,-4.94667
66.75000,-11.12477,-4.94863
66.80000,-11.13291,-4.95316
66.85001,-11.14131,-4.95364
66.90000,-11.14997,-4.96014
66.95001,-11.15824,-4.96380
67.00000,-11.16651,-4.96567
67.05000,-11.17504,-4.97020
67.10001,-11.18331,-4.97210
67.15000,-11.19157,-4.97685
67.20001,-11.19997,-4.97920
67.25000,-11.20837,-4.98319
67.30000,-11.21664,-4.98596
67.35001,-11.22491,-4.99191
67.40000,-11.23317,-4.99123
67.45001,-11.24171,-4.99798
67.50000,-11.24997,-5.00012
67.55000,-11.25811,-5.00384
67.60001,-11.26664,-5.00498
67.65000,-11.27491,-5.01214
67.70001,-11.28304,-5.01250
67.75000,-11.29157,-5.01739
67.80000,-11.30011,-5.02220
67.85001,-11.30824,-5.02610
67.90000,-11.31664,-5.02840
67.95001,-11.32517,-5.03168
68.00000,-11.33331,-5.03655
68.05000,-11.34157,-5.03645
68.10001,-11.34997,-5.04341
68.15000,-11.35837,-5.04304
68.20001,-11.36664,-5.04926
68.25000,-11.37491,-5.05091
68.30000,-11.38331,-5.05558
68.35001,-11.39157,-5.05734
68.40000,-11.39984,-5.06091
68.45001,-11.40811,-5.06443
68.50000,-11.41664,-5.06706
68.55000,-11.42504,-5.07321
68.60001,-11.43304,-5.07453
68.65000,-11.44157,-5.07837
68.70001,-11.45011,-5.08225
68.75000,-11.45824,-5.08654
68.80000,-11.46651,-5.08711
68.85001,-11.47517,-5.09312
68.90000,-11.48317,-5.09429
68.95001,-11.49144,-5.09923
69.00000,-11.49984,-5.09874
69.05000,-11.50811,-5.10554
69.10001,-11.51637,-5.10433
69.15000,-11.52477,-5.11057
69.20001,-11.53304,-5.11187
69.25000,-11.54131,-5.11620
69.30000,-11.54971,-5.11861
69.35001,-11.55797,-5.12177
69.40000,-11.56650,-5.12651
69.45001,-11.57491,-5.12823
69.50000,-11.58304,-5.13440
69.55000,-11.59144,-5.13299
69.60001,-11.59984,-5.14017
69.65000,-11.60797,-5.14058
69.70001,-11.61637,-5.14515
69.75000,-11.62504,-5.14787
69.80000,-11.63317,-5.15299
69.85001,-11.64130,-5.15264
69.90000,-11.64997,-5.15768
69.95001,-11.65824,-5.16043
70.00000,-11.66637,-5.16326
70.05000,-11.67477,-5.16443
70.10001,-11.68330,-5.17132
70.15000,-11.69144,-5.17024
70.20001,-11.69970,-5.17642
70.25000,-11.70837,-5.17695
70.30000,-11.71664,-5.18266
70.35001,-11.72504,-5.18397
70.40000,-11.73344,-5.18860
70.45001,-11.74170,-5.19116
70.50000,-11.74997,-5.19259
70.55000,-11.75837,-5.19919
70.60001,-11.76650,-5.19705
70.65000,-11.77504,-5.20457
70.70001,-11.78317,-5.20430
70.75000,-11.79130,-5.20950
70.80000,-11.79984,-5.20871
70.85001,-11.80810,-5.21549
70.90000,-11.81637,-5.21453
70.95001,-11.82490,-5.21916
71.00000,-11.83330,-5.22073
71.05000,-11.84144,-5.22483
71.10001,-11.84984,-5.22497
71.15000,-11.85837,-5.23113
71.20001,-11.86650,-5.22952
71.25000,-11.87490,-5.23529
71.30000,-11.88330,-5.23525
71.35001,-11.89170,-5.24003
71.40000,-11.89997,-5.24067
71.45001,-11.90824,-5.24375
71.50000,-11.91650,-5.24631
71.55000,-11.92504,-5.24713
71.60001,-11.93317,-5.25361
71.65000,-11.94144,-5.24909
71.70001,-11.94997,-5.25929
71.75000,-11.95837,-5.25357
71.80000,-11.96650,-5.26382
71.85001,-11.97504,-5.25783
71.90000,-11.98344,-5.26874
71.95001,-11.99157,-5.26278
72.00000,-11.99997,-5.27056
72.05000,-12.00850,-5.26781
72.10001,-12.01650,-5.27424
72.15000,-12.02477,-5.27046
72.20001,-12.03317,-5.27648
72.25000,-12.04130,-5.27371
72.30000,-12.04970,-5.28003
72.35001,-12.05810,-5.27903
72.40000,-12.06650,-5.28286
72.45001,-12.07464,-5.28176
72.50000,-12.08304,-5.28731
72.55000,-12.09130,-5.28698
72.60001,-12.09984,-5.28880
72.65000,-12.10824,-5.29258
72.70001,-12.11637,-5.29490
72.75000,-12.12490,-5.29421
72.80000,-12.13330,-5.29796
72.85001,-12.14144,-5.30220
72.90000,-12.14984,-5.29951
72.95001,-12.15837,-5.30411
73.00000,-12.16650,-5.30446
73.05000,-12.17464,-5.30710
73.10001,-12.18317,-5.30501
73.15000,-12.19144,-5.30951
73.20001,-12.19944,-5.30861
73.25000,-12.20784,-5.30962
73.30000,-12.21650,-5.31259
73.35001,-12.22477,-5.31557
73.40000,-12.23317,-5.31595
73.45001,-12.24170,-5.31916
73.50000,-12.24997,-5.31965
73.55000,-12.25824,-5.32113
73.60001,-12.26664,-5.32230
73.65000,-12.27504,-5.32401
73.70001,-12.28344,-5.32594
73.75000,-12.29170,-5.32792
73.80000,-12.29997,-5.32799
73.85001,-12.30850,-5.33146
73.90000,-12.31664,-5.33338
73.95001,-12.32477,-5.33269
74.00000,-12.33330,-5.33577
74.05000,-12.34157,-5.33804
74.10001,-12.34970,-5.33913
74.15000,-12.35824,-5.34080
74.20001,-12.36677,-5.34583
74.25000,-12.37490,-5.34660
74.30000,-12.38330,-5.34909
74.35001,-12.39197,-5.35262
74.40000,-12.39997,-5.35481
74.45001,-12.40837,-5.35659
74.50000,-12.41677,-5.35892
74.55000,-12.42504,-5.36197
74.60001,-12.43330,-5.36248
74.65000,-12.44157,-5.36526
74.70001,-12.44984,-5.36637
74.75000,-12.45824,-5.37081
74.80000,-12.46650,-5.37190
74.85001,-12.47464,-5.37495
74.90000,-12.48330,-5.37663
74.95001,-12.49157,-5.38171
75.00000,-12.49970,-5.38155
75.05000,-12.50824,-5.38588
75.10001,-12.51677,-5.38786
75.15000,-12.52477,-5.39157
75.20001,-12.53317,-5.39206
75.25000,-12.54170,-5.39638
75.30000,-12.54984,-5.39742
75.35001,-12.55810,-5.40032
75.40000,-12.56650,-5.40187
75.45001,-12.57477,-5.40627
75.50000,-12.58304,-5.40610
75.55000,-12.59130,-5.40955
75.60001,-12.59957,-5.41297
75.65000,-12.60784,-5.41395
75.70001,-12.61637,-5.41909
75.75000,-12.62464,-5.42114
75.80000,-12.63317,-5.42541
75.85001,-12.64144,-5.42794
75.90000,-12.64970,-5.43069
75.95001,-12.65824,-5.43384
76.00000,-12.66664,-5.43725
76.05000,-12.67477,-5.44044
76.10001,-12.68317,-5.44362
76.15000,-12.69170,-5.44599
76.20001,-12.69970,-5.45037
76.25000,-12.70797,-5.45045
76.30000,-12.71650,-5.45561
76.35001,-12.72490,-5.45841
76.40000,-12.73304,-5.46143
76.45001,-12.74144,-5.46339
76.50000,-12.74997,-5.46760
76.55000,-12.75824,-5.47082
76.60001,-12.76650,-5.47380
76.65000,-12.77504,-5.47743
76.70001,-12.78344,-5.48276
76.75000,-12.79170,-5.48482
76.80000,-12.79997,-5.49013
76.85001,-12.80837,-5.49222
76.90000,-12.81677,-5.49826
76.95001,-12.82504,-5.49926
77.00000,-12.83330,-5.50341
77.05000,-12.84170,-5.50804
77.10001,-12.84997,-5.51118
77.15000,-12.85810,-5.51256
77.20001,-12.86663,-5.51842
77.25000,-12.87490,-5.52201
77.30000,-12.88304,-5.52381
77.35001,-12.89157,-5.52810
77.40000,-12.90010,-5.53550
77.45001,-12.90824,-5.53559
77.50000,-12.91650,-5.53967
77.55000,-12.92504,-5.54160
77.60001,-12.93317,-5.54655
77.65000,-12.94157,-5.54671
77.70001,-12.94997,-5.55229
77.75000,-12.95837,-5.55143
77.80000,-12.96677,-5.56089
77.85001,-12.97504,-5.55601
77.90000,-12.98317,-5.56344
77.95001,-12.99157,-5.56470
78.00000,-12.99983,-5.56977
78.05000,-13.00797,-5.56899
78.10001,-13.01650,-5.57515
78.15000,-13.02490,-5.57716
78.20001,-13.03304,-5.58108
78.25000,-13.04157,-5.58314
78.30000,-13.05010,-5.58887
78.35001,-13.05810,-5.59188
78.40000,-13.06650,-5.59235
78.45001,-13.07504,-5.59624
78.50000,-13.08317,-5.60266
78.55000,-13.09143,-5.60162
78.60001,-13.09983,-5.60624
78.65000,-13.10810,-5.60825
78.70001,-13.11637,-5.61196
78.75000,-13.12463,-5.61310
78.80000,-13.13304,-5.62033
78.85001,-13.14143,-5.61627
78.90000,-13.14970,-5.62711
78.95001,-13.15797,-5.62348
79.00000,-13.16650,-5.63033
79.05000,-13.17490,-5.62987
79.10001,-13.18303,-5.63787
79.15000,-13.19157,-5.63413
79.20001,-13.19997,-5.64183
79.25000,-13.20810,-5.64206
79.30000,-13.21650,-5.64794
79.35001,-13.22517,-5.64757
79.40000,-13.23317,-5.65351
79.45001,-13.24130,-5.65227
79.50000,-13.24997,-5.65948
79.55000,-13.25823,-5.65960
79.60001,-13.26637,-5.66499
79.65000,-13.27477,-5.66608
79.70001,-13.28330,-5.67146
79.75000,-13.29157,-5.67255
79.80000,-13.29983,-5.67721
79.85001,-13.30837,-5.67983
79.90000,-13.31650,-5.68233
79.95001,-13.32503,-5.68611
80.00000,-13.33330,-5.69083
80.05000,-13.34170,-5.69244
80.10001,-13.34997,-5.69612
80.15000,-13.35837,-5.70078
80.20001,-13.36650,-5.70307
80.25000,-13.37503,-5.70868
80.30000,-13.38330,-5.71210
80.35001,-13.39143,-5.71598
80.40000,-13.39997,-5.72037
80.45001,-13.40810,-5.72710
80.50001,-13.41637,-5.72721
80.55000,-13.42490,-5.73605
80.60001,-13.43343,-5.74000
80.65000,-13.44157,-5.74632
80.70001,-13.44997,-5.74812
80.75001,-13.45850,-5.75583
80.80000,-13.46677,-5.75882
80.85001,-13.47503,-5.76391
80.90000,-13.48330,-5.76684
80.95001,-13.49170,-5.77216
81.00001,-13.49997,-5.77564
81.05000,-13.50823,-5.78143
81.10001,-13.51650,-5.78430
81.15000,-13.52490,-5.79027
81.20001,-13.53317,-5.79532
81.25001,-13.54130,-5.79907
81.30000,-13.54997,-5.80384
81.35001,-13.55810,-5.81013
81.40000,-13.56637,-5.81374
81.45001,-13.57490,-5.81738
81.50001,-13.58330,-5.82479
81.55000,-13.59130,-5.82882
81.60001,-13.59970,-5.83183
81.65000,-13.60837,-5.83795
81.70001,-13.61650,-5.84390
81.75001,-13.62490,-5.84773
81.80000,-13.63330,-5.85235
81.85001,-13.64157,-5.85690
81.90000,-13.64970,-5.86142
81.95001,-13.65810,-5.86543
82.00001,-13.66637,-5.87039
82.05000,-13.67463,-5.87407
82.10001,-13.68303,-5.88011
82.15000,-13.69130,-5.88410
82.20001,-13.69983,-5.88878
82.25001,-13.70823,-5.89577
82.30000,-13.71637,-5.90108
82.35001,-13.72490,-5.90371
82.40000,-13.73343,-5.91157
82.45001,-13.74143,-5.91623
82.50001,-13.74983,-5.92002
82.55000,-13.75837,-5.92530
82.60001,-13.76650,-5.93263
82.65000,-13.77463,-5.93567
82.70001,-13.78330,-5.94136
82.75001,-13.79157,-5.94783
82.80000,-13.79970,-5.95188
82.85001,-13.80797,-5.95727
82.90000,-13.81650,-5.96327
82.95001,-13.82477,-5.96877
83.00001,-13.83303,-5.97501
83.05000,-13.84157,-5.97996
83.10001,-13.84997,-5.98658
83.15000,-13.85823,-5.99070
83.20001,-13.86663,-5.99669
83.25001,-13.87503,-5.99969
83.30000,-13.88343,-6.00758
83.35001,-13.89170,-6.01227
83.40000,-13.89983,-6.01501
83.45001,-13.90837,-6.02275
83.50001,-13.91650,-6.02731
83.55000,-13.92477,-6.03161
83.60001,-13.93330,-6.03692
83.65000,-13.94157,-6.04327
83.70001,-13.94970,-6.04874
83.75001,-13.95823,-6.05309
83.80000,-13.96677,-6.05916
83.85001,-13.97490,-6.06551
83.90000,-13.98317,-6.06852
83.95001,-13.99183,-6.07635
84.00001,-13.99997,-6.07988
84.05000,-14.00823,-6.08683
84.10001,-14.01663,-6.09304
84.15000,-14.02503,-6.09831
84.20001,-14.03317,-6.10337
84.25001,-14.04143,-6.11251
84.30000,-14.04983,-6.11606
84.35001,-14.05823,-6.12548
84.40000,-14.06650,-6.13236
84.45001,-14.07463,-6.13370
84.50001,-14.08330,-6.14760
84.55000,-14.09157,-6.14597
84.60001,-14.09970,-6.16244
84.65000,-14.10823,-6.15856
84.70001,-14.11677,-6.17811
84.75001,-14.12477,-6.17246
84.80000,-14.13317,-6.18823
84.85001,-14.14183,-6.18563
84.90000,-14.14997,-6.20022
84.95001,-14.15823,-6.19941
85.00001,-14.16650,-6.20707
85.05000,-14.17476,-6.21258
85.10001,-14.18303,-6.21826
85.15000,-14.19130,-6.22831
85.20001,-14.19970,-6.23189
85.25001,-14.20797,-6.24121
85.30000,-14.21637,-6.24614
85.35001,-14.22476,-6.25834
85.40000,-14.23317,-6.25927
85.45001,-14.24157,-6.27430
85.50001,-14.24957,-6.27299
85.55000,-14.25810,-6.28523
85.60001,-14.26663,-6.28720
85.65000,-14.27476,-6.30433
85.70001,-14.28303,-6.29860
85.75001,-14.29183,-6.31622
85.80000,-14.29997,-6.31536
85.85001,-14.30810,-6.32687
85.90000,-14.31650,-6.33082
85.95001,-14.32490,-6.33396
86.00001,-14.33303,-6.35593
86.05000,-14.34130,-6.34279
86.10001,-14.34983,-6.36844
86.15000,-14.35810,-6.36378
86.20001,-14.36637,-6.38132
86.25001,-14.37490,-6.37927
86.30000,-14.38330,-6.39615
86.35001,-14.39170,-6.39262
86.40000,-14.39996,-6.41921
86.45001,-14.40836,-6.39632
86.50001,-14.41676,-6.44095
86.55000,-14.42490,-6.41062
86.60001,-14.43317,-6.45388
86.65000,-14.44170,-6.42628
86.70001,-14.44996,-6.46793
86.75001,-14.45810,-6.44389
86.80000,-14.46663,-6.47606
86.85001,-14.47490,-6.46072
86.90000,-14.48303,-6.49507
86.95001,-14.49156,-6.46689
87.00001,-14.50010,-6.51850
87.05000,-14.50823,-6.47945
87.10001,-14.51650,-6.53329
87.15000,-14.52516,-6.49712
87.20001,-14.53330,-6.54726
87.25001,-14.54156,-6.51419
87.30000,-14.55010,-6.55798
87.35001,-14.55836,-6.53431
87.40000,-14.56663,-6.57231
87.45001,-14.57490,-6.54741
87.50001,-14.58316,-6.58654
87.55000,-14.59156,-6.56164
87.60001,-14.59983,-6.60550
87.65000,-14.60796,-6.57659
87.70001,-14.61663,-6.61579
87.75001,-14.62490,-6.59944
87.80000,-14.63303,-6.62761
87.85001,-14.64156,-6.61700
87.90000,-14.65023,-6.64261
87.95001,-14.65823,-6.63031
88.00001,-14.66650,-6.66260
88.05000,-14.67503,-6.63982
88.10001,-14.68316,-6.68008
88.15000,-14.69143,-6.65811
88.20001,-14.69983,-6.69056
88.25001,-14.70823,-6.67554
88.30000,-14.71636,-6.70316
88.35001,-14.72476,-6.69501
88.40000,-14.73303,-6.72020
88.45001,-14.74143,-6.70563
88.50001,-14.74970,-6.74020
88.55000,-14.75796,-6.72475
88.60001,-14.76650,-6.75406
88.65000,-14.77490,-6.74459
88.70001,-14.78303,-6.77113
88.75001,-14.79156,-6.76398
88.80000,-14.80010,-6.78434
88.85001,-14.80810,-6.78350
88.90000,-14.81650,-6.80030
88.95001,-14.82503,-6.79757
89.00001,-14.83316,-6.81926
89.05000,-14.84130,-6.81148
89.10001,-14.84983,-6.83581
89.15000,-14.85810,-6.83044
89.20001,-14.86623,-6.84787
89.25001,-14.87476,-6.84980
89.30000,-14.88330,-6.86645
89.35001,-14.89156,-6.86931
89.40000,-14.89983,-6.88176
89.45001,-14.90836,-6.88683
89.50001,-14.91650,-6.89739
89.55000,-14.92490,-6.90321
89.60001,-14.93316,-6.91284
89.65000,-14.94170,-6.92396
89.70001,-14.95010,-6.92524
89.75001,-14.95836,-6.94923
89.80000,-14.96663,-6.93721
89.85001,-14.97503,-6.96209
89.90000,-14.98316,-6.95795
89.95001,-14.99130,-6.97666
90.00001,-14.99983,-6.97085
90.05000,-15.00810,-6.99481
90.10001,-15.01623,-6.99075
90.15000,-15.02490,-7.00754
90.20001,-15.03343,-7.01137
90.25001,-15.04156,-7.02963
90.30000,-15.04983,-7.02796
90.30601,-15.05090,-7.03066
