Time,Extension,Load
(sec),(mm),(N)
0.00000,-0.00027,-0.29696
0.05000,-0.00133,-0.29976
0.10000,-0.00573,-0.30133
0.15000,-0.01467,-0.31480
0.20000,-0.02533,-0.32971
0.25000,-0.03560,-0.34695
0.30000,-0.04547,-0.35920
0.35000,-0.05507,-0.37477
0.40000,-0.06427,-0.38444
0.45000,-0.07320,-0.39713
0.50000,-0.08200,-0.40754
0.55000,-0.09080,-0.41919
0.60000,-0.09960,-0.42745
0.65000,-0.10787,-0.44007
0.70000,-0.11640,-0.44806
0.75000,-0.12507,-0.45963
0.80000,-0.13307,-0.46702
0.85000,-0.14147,-0.47828
0.90000,-0.15013,-0.48603
0.95000,-0.15827,-0.49680
1.00000,-0.16640,-0.50456
1.05000,-0.17493,-0.51631
1.10000,-0.18347,-0.52551
1.15000,-0.19160,-0.53501
1.20000,-0.20013,-0.54298
1.25000,-0.20867,-0.55511
1.30000,-0.21693,-0.56319
1.35000,-0.22520,-0.57430
1.40000,-0.23347,-0.58124
1.45000,-0.24200,-0.59397
1.50000,-0.25027,-0.60059
1.55000,-0.25853,-0.61219
1.60000,-0.26693,-0.61966
1.65000,-0.27547,-0.63106
1.70000,-0.28347,-0.63800
1.75000,-0.29173,-0.64999
1.80000,-0.30027,-0.65671
1.85000,-0.30840,-0.66847
1.90000,-0.31667,-0.67533
1.95000,-0.32533,-0.68747
2.00000,-0.33373,-0.69454
2.05000,-0.34187,-0.70595
2.10000,-0.35027,-0.71381
2.15000,-0.35880,-0.72376
2.20000,-0.36680,-0.73263
2.25000,-0.37520,-0.74240
2.30000,-0.38373,-0.75159
2.35000,-0.39200,-0.76010
2.40000,-0.40027,-0.77036
2.45000,-0.40840,-0.77819
2.50000,-0.41680,-0.78711
2.55000,-0.42507,-0.79681
2.60000,-0.43333,-0.80625
2.65000,-0.44173,-0.81417
2.70000,-0.45013,-0.82417
2.75000,-0.45840,-0.83289
2.80000,-0.46667,-0.84156
2.85000,-0.47520,-0.85083
2.90000,-0.48360,-0.86092
2.95000,-0.49173,-0.86968
3.00000,-0.50027,-0.87833
3.05000,-0.50880,-0.88679
3.10000,-0.51693,-0.89720
3.15000,-0.52520,-0.90444
3.20000,-0.53360,-0.91438
3.25000,-0.54173,-0.92267
3.30000,-0.55000,-0.93199
3.35000,-0.55840,-0.94038
3.40000,-0.56667,-0.94911
3.45000,-0.57493,-0.95810
3.50000,-0.58333,-0.96681
3.55000,-0.59160,-0.97599
3.60000,-0.60013,-0.98475
3.65000,-0.60853,-0.99332
3.70000,-0.61667,-1.00308
3.75000,-0.62520,-1.01077
3.80000,-0.63373,-1.02066
3.85000,-0.64187,-1.02917
3.90000,-0.65013,-1.03721
3.95000,-0.65867,-1.04688
4.00000,-0.66680,-1.05479
4.05000,-0.67493,-1.06409
4.10000,-0.68360,-1.07250
4.15000,-0.69160,-1.08164
4.20000,-0.69986,-1.08849
4.25000,-0.70840,-1.09832
4.30000,-0.71680,-1.10718
4.35000,-0.72493,-1.11570
4.40000,-0.73346,-1.12465
4.45000,-0.74186,-1.13278
4.50000,-0.75013,-1.14163
4.55000,-0.75853,-1.15000
4.60000,-0.76693,-1.15925
4.65000,-0.77533,-1.16668
4.70000,-0.78373,-1.17636
4.75000,-0.79186,-1.18449
4.80000,-0.80013,-1.19207
4.85000,-0.80853,-1.20106
4.90000,-0.81680,-1.20965
4.95000,-0.82506,-1.21629
5.00000,-0.83346,-1.22739
5.05000,-0.84173,-1.23379
5.10000,-0.84986,-1.24354
5.15000,-0.85866,-1.24997
5.20000,-0.86706,-1.26178
5.25000,-0.87520,-1.26658
5.30000,-0.88360,-1.27968
5.35000,-0.89213,-1.28198
5.40000,-0.90013,-1.29528
5.45000,-0.90840,-1.29858
5.50000,-0.91693,-1.31249
5.55000,-0.92520,-1.31387
5.60000,-0.93346,-1.32908
5.65000,-0.94186,-1.33142
5.70000,-0.95026,-1.34454
5.75000,-0.95840,-1.34687
5.80000,-0.96666,-1.36149
5.85000,-0.97506,-1.36287
5.90000,-0.98360,-1.37713
5.95000,-0.99186,-1.38051
6.00000,-1.00013,-1.39268
6.05000,-1.00880,-1.39570
6.10000,-1.01720,-1.40929
6.15000,-1.02520,-1.41302
6.20000,-1.03360,-1.42396
6.25000,-1.04213,-1.42855
6.30000,-1.05013,-1.43946
6.35000,-1.05840,-1.44471
6.40000,-1.06693,-1.45406
6.45000,-1.07506,-1.45991
6.50000,-1.08333,-1.47003
6.55000,-1.09173,-1.47504
6.60000,-1.10000,-1.48517
6.65000,-1.10826,-1.49089
6.70000,-1.11666,-1.49995
6.75000,-1.12506,-1.50610
6.80000,-1.13360,-1.51599
6.85000,-1.14200,-1.52129
6.90000,-1.15013,-1.53144
6.95000,-1.15866,-1.53579
7.00000,-1.16706,-1.54626
7.05000,-1.17506,-1.55178
7.10000,-1.18346,-1.55984
7.15000,-1.19186,-1.56697
7.20000,-1.20000,-1.57458
7.25000,-1.20826,-1.58175
7.30000,-1.21693,-1.59030
7.35000,-1.22493,-1.59615
7.40000,-1.23320,-1.60527
7.45000,-1.24173,-1.60863
7.50000,-1.25013,-1.62198
7.55000,-1.25840,-1.62416
7.60000,-1.26693,-1.63491
7.65000,-1.27533,-1.64043
7.70000,-1.28360,-1.64818
7.75000,-1.29200,-1.65610
7.80000,-1.30026,-1.66200
7.85000,-1.30866,-1.66974
7.90000,-1.31693,-1.67646
7.95000,-1.32520,-1.68317
8.00000,-1.33360,-1.69088
8.05000,-1.34200,-1.69725
8.10000,-1.35013,-1.70431
8.15000,-1.35840,-1.71184
8.20000,-1.36693,-1.71726
8.25000,-1.37506,-1.72678
8.30000,-1.38333,-1.72918
8.35000,-1.39200,-1.74089
8.40000,-1.40040,-1.74409
8.45000,-1.40840,-1.75434
8.50000,-1.41680,-1.75654
8.55000,-1.42546,-1.76748
8.60000,-1.43346,-1.77083
8.65000,-1.44200,-1.78038
8.70000,-1.45040,-1.78507
8.75000,-1.45866,-1.79346
8.80000,-1.46693,-1.79685
8.85000,-1.47520,-1.80670
8.90000,-1.48346,-1.80905
8.95000,-1.49173,-1.81946
9.00000,-1.50000,-1.82182
9.05000,-1.50840,-1.83157
9.10000,-1.51693,-1.83585
9.15000,-1.52520,-1.84381
9.20000,-1.53346,-1.84853
9.25000,-1.54200,-1.85614
9.30000,-1.55026,-1.86191
9.35000,-1.55853,-1.86822
9.40000,-1.56693,-1.87421
9.45000,-1.57546,-1.88089
9.50000,-1.58333,-1.88639
9.55000,-1.59173,-1.89205
9.60000,-1.60013,-1.89856
9.65000,-1.60826,-1.90415
9.70000,-1.61666,-1.90991
9.75000,-1.62506,-1.91679
9.80000,-1.63320,-1.92198
9.85000,-1.64160,-1.92756
9.90000,-1.65000,-1.93476
9.95000,-1.65840,-1.93916
10.00000,-1.66693,-1.94689
10.05000,-1.67533,-1.95212
10.10000,-1.68346,-1.95870
10.15000,-1.69200,-1.96335
10.20000,-1.70040,-1.97076
10.25000,-1.70853,-1.97507
10.30000,-1.71680,-1.98117
10.35000,-1.72533,-1.98728
10.40000,-1.73333,-1.99286
10.45000,-1.74160,-1.99808
10.50000,-1.75026,-2.00385
10.55000,-1.75840,-2.01034
10.60000,-1.76653,-2.01451
10.65000,-1.77506,-2.02130
10.70000,-1.78346,-2.02647
10.75000,-1.79173,-2.03209
10.80000,-1.80026,-2.03695
10.85000,-1.80866,-2.04411
10.90000,-1.81680,-2.04776
10.95000,-1.82520,-2.05452
11.00000,-1.83360,-2.05915
11.05000,-1.84200,-2.06485
11.10000,-1.85040,-2.07008
11.15000,-1.85853,-2.07660
11.20000,-1.86693,-2.07963
11.25000,-1.87533,-2.08647
11.30000,-1.88346,-2.09052
11.35000,-1.89173,-2.09677
11.40000,-1.90013,-2.09999
11.45000,-1.90840,-2.10649
11.50000,-1.91666,-2.11167
11.55000,-1.92520,-2.11605
11.60000,-1.93360,-2.12207
11.65000,-1.94173,-2.12673
11.70000,-1.95026,-2.13158
11.75000,-1.95880,-2.13731
11.80000,-1.96693,-2.14155
11.85000,-1.97533,-2.14676
11.90000,-1.98373,-2.15205
11.95000,-1.99186,-2.15562
12.00000,-2.00026,-2.16059
12.05000,-2.00853,-2.16614
12.10000,-2.01693,-2.16980
12.15000,-2.02520,-2.17498
12.20000,-2.03333,-2.18057
12.25000,-2.04160,-2.18445
12.30000,-2.05026,-2.18924
12.35000,-2.05853,-2.19341
12.40000,-2.06666,-2.19860
12.45000,-2.07533,-2.20317
12.50000,-2.08359,-2.20816
12.55000,-2.09173,-2.21210
12.60000,-2.10026,-2.21742
12.65000,-2.10879,-2.22130
12.70000,-2.11666,-2.22626
12.75000,-2.12506,-2.23011
12.80000,-2.13359,-2.23421
12.85000,-2.14173,-2.23863
12.90000,-2.14999,-2.24331
12.95000,-2.15839,-2.24693
13.00000,-2.16666,-2.25199
13.05000,-2.17506,-2.25637
13.10000,-2.18333,-2.26097
13.15000,-2.19173,-2.26504
13.20000,-2.20026,-2.26942
13.25000,-2.20853,-2.27423
13.30000,-2.21666,-2.27798
13.35000,-2.22519,-2.28126
13.40000,-2.23373,-2.28677
13.45000,-2.24173,-2.29032
13.50000,-2.25013,-2.29404
13.55000,-2.25866,-2.29790
13.60000,-2.26666,-2.30193
13.65000,-2.27493,-2.30601
13.70000,-2.28359,-2.30989
13.75000,-2.29159,-2.31345
13.80000,-2.29973,-2.31689
13.85000,-2.30839,-2.32110
13.90000,-2.31693,-2.32459
13.95000,-2.32519,-2.32966
14.00000,-2.33359,-2.33265
14.05000,-2.34213,-2.33733
14.10000,-2.35039,-2.34022
14.15000,-2.35879,-2.34341
14.20000,-2.36706,-2.34758
14.25000,-2.37533,-2.35010
14.30000,-2.38359,-2.35373
14.35000,-2.39186,-2.35687
14.40000,-2.40026,-2.35970
14.45000,-2.40866,-2.36321
14.50000,-2.41679,-2.36682
14.55000,-2.42506,-2.36911
14.60000,-2.43346,-2.37317
14.65000,-2.44173,-2.37630
14.70000,-2.44999,-2.37935
14.75000,-2.45853,-2.38300
14.80000,-2.46693,-2.38710
14.85000,-2.47519,-2.38905
14.90000,-2.48359,-2.39258
14.95000,-2.49213,-2.39640
15.00000,-2.50013,-2.39932
15.05000,-2.50853,-2.40257
15.10000,-2.51693,-2.40576
15.15000,-2.52506,-2.40931
15.20000,-2.53333,-2.41098
15.25000,-2.54173,-2.41471
15.30000,-2.55013,-2.41779
15.35000,-2.55826,-2.42081
15.40000,-2.56666,-2.42435
15.45000,-2.57493,-2.42596
15.50000,-2.58346,-2.43073
15.55000,-2.59173,-2.43281
15.60000,-2.59999,-2.43683
15.65000,-2.60866,-2.43885
15.70000,-2.61706,-2.44362
15.75000,-2.62506,-2.44585
15.80000,-2.63346,-2.44839
15.85000,-2.64213,-2.45150
15.90000,-2.65013,-2.45480
15.95000,-2.65839,-2.45708
16.00000,-2.66693,-2.45975
16.05000,-2.67506,-2.46393
16.10000,-2.68333,-2.46578
16.15000,-2.69186,-2.47008
16.20000,-2.70013,-2.47153
16.25000,-2.70826,-2.47410
16.30000,-2.71666,-2.47706
16.35000,-2.72506,-2.48080
16.40000,-2.73359,-2.48225
16.45000,-2.74199,-2.48665
16.50000,-2.75013,-2.48755
16.55000,-2.75866,-2.49166
16.60000,-2.76706,-2.49275
16.65000,-2.77519,-2.49795
16.70000,-2.78346,-2.49695
16.75000,-2.79199,-2.50279
16.80000,-2.79999,-2.50288
16.85000,-2.80839,-2.50733
16.90000,-2.81693,-2.50820
16.95000,-2.82493,-2.51264
17.00000,-2.83319,-2.51217
17.05000,-2.84186,-2.51836
17.10000,-2.85013,-2.51790
17.15000,-2.85839,-2.52320
17.20000,-2.86693,-2.52232
17.25000,-2.87533,-2.52861
17.30000,-2.88359,-2.52764
17.35000,-2.89199,-2.53414
17.40000,-2.90026,-2.53205
17.45000,-2.90866,-2.53874
17.50000,-2.91693,-2.53828
17.55000,-2.92519,-2.54328
17.60000,-2.93359,-2.54210
17.65000,-2.94199,-2.54764
17.70000,-2.94999,-2.54769
17.75000,-2.95826,-2.55098
17.80000,-2.96679,-2.55198
17.85000,-2.97506,-2.55620
17.90000,-2.98333,-2.55668
17.95000,-2.99199,-2.56062
18.00000,-3.00039,-2.56212
18.05000,-3.00853,-2.56502
18.10000,-3.01693,-2.56603
18.15000,-3.02546,-2.56952
18.20000,-3.03359,-2.56941
18.25000,-3.04199,-2.57312
18.30000,-3.05039,-2.57457
18.35000,-3.05866,-2.57535
18.40000,-3.06693,-2.57788
18.45000,-3.07519,-2.58124
18.50000,-3.08359,-2.58000
18.55000,-3.09186,-2.58296
18.60000,-3.10013,-2.58546
18.65000,-3.10839,-2.58629
18.70000,-3.11693,-2.58683
18.75000,-3.12519,-2.59007
18.80000,-3.13346,-2.59071
18.85000,-3.14199,-2.59231
18.90000,-3.15039,-2.59436
18.95000,-3.15839,-2.59696
19.00000,-3.16693,-2.59748
19.05000,-3.17546,-2.59969
19.10000,-3.18346,-2.60105
19.15000,-3.19173,-2.60177
19.20000,-3.20026,-2.60522
19.25000,-3.20839,-2.60467
19.30000,-3.21653,-2.60779
19.35000,-3.22506,-2.60738
19.40000,-3.23333,-2.61058
19.45000,-3.24159,-2.61063
19.50000,-3.24999,-2.61306
19.55000,-3.25839,-2.61427
19.60000,-3.26693,-2.61633
19.65000,-3.27519,-2.61663
19.70000,-3.28333,-2.61907
19.75000,-3.29186,-2.61919
19.80000,-3.30039,-2.62282
19.85000,-3.30839,-2.61969
19.90000,-3.31679,-2.62461
19.95000,-3.32533,-2.62367
20.00000,-3.33333,-2.62481
20.05000,-3.34159,-2.62450
20.10000,-3.35026,-2.62860
20.15000,-3.35839,-2.62541
20.20000,-3.36653,-2.62991
20.25000,-3.37506,-2.62819
20.30000,-3.38359,-2.63253
20.35000,-3.39173,-2.62947
20.40000,-3.40013,-2.63406
20.45000,-3.40866,-2.63231
20.50000,-3.41692,-2.63520
20.55000,-3.42533,-2.63341
20.60000,-3.43359,-2.63686
20.65000,-3.44199,-2.63597
20.70000,-3.45026,-2.63705
20.75000,-3.45852,-2.63869
20.80000,-3.46679,-2.63837
20.85000,-3.47532,-2.64061
20.90000,-3.48332,-2.63917
20.95000,-3.49159,-2.64216
21.00000,-3.50012,-2.63949
21.05000,-3.50839,-2.64399
21.10000,-3.51666,-2.64091
21.15000,-3.52532,-2.64569
21.20000,-3.53372,-2.64157
21.25000,-3.54172,-2.64637
21.30000,-3.55026,-2.64456
21.35000,-3.55879,-2.64705
21.40000,-3.56692,-2.64547
21.45000,-3.57519,-2.64834
21.50000,-3.58372,-2.64625
21.55000,-3.59199,-2.64986
21.60000,-3.60012,-2.64599
21.65000,-3.60852,-2.65061
21.70000,-3.61692,-2.64678
21.75000,-3.62506,-2.65073
21.80000,-3.63332,-2.64627
21.85000,-3.64159,-2.65011
21.90000,-3.65012,-2.64742
21.95000,-3.65852,-2.64959
22.00000,-3.66679,-2.64615
22.05000,-3.67532,-2.64916
22.10000,-3.68372,-2.64599
22.15000,-3.69186,-2.64847
22.20000,-3.70026,-2.64539
22.25000,-3.70879,-2.64868
22.30000,-3.71679,-2.64409
22.35000,-3.72506,-2.64811
22.40000,-3.73372,-2.64673
22.45000,-3.74172,-2.64769
22.50000,-3.74999,-2.64672
22.55000,-3.75826,-2.65100
22.60000,-3.76652,-2.64726
22.65000,-3.77492,-2.64928
22.70000,-3.78332,-2.65132
22.75000,-3.79159,-2.65130
22.80000,-3.80012,-2.65110
22.85000,-3.80852,-2.65435
22.90000,-3.81666,-2.65335
22.95000,-3.82519,-2.65492
23.00000,-3.83372,-2.65580
23.05000,-3.84186,-2.65689
23.10000,-3.85026,-2.65622
23.15000,-3.85879,-2.65827
23.20000,-3.86679,-2.65904
23.25000,-3.87492,-2.65808
23.30000,-3.88359,-2.65984
23.35000,-3.89172,-2.66028
23.40000,-3.89986,-2.66169
23.45000,-3.90839,-2.65958
23.50000,-3.91679,-2.66364
23.55000,-3.92506,-2.66321
23.60000,-3.93346,-2.66401
23.65000,-3.94186,-2.66569
23.70000,-3.95026,-2.66496
23.75000,-3.95852,-2.66613
23.80000,-3.96679,-2.66800
23.85000,-3.97532,-2.66635
23.90000,-3.98372,-2.66938
23.95000,-3.99172,-2.66864
24.00000,-4.00012,-2.66854
24.05000,-4.00866,-2.66824
24.10000,-4.01679,-2.67054
24.15000,-4.02506,-2.66863
24.20000,-4.03359,-2.67052
24.25000,-4.04172,-2.66893
24.30000,-4.04986,-2.67027
24.35000,-4.05852,-2.67006
24.40000,-4.06706,-2.66972
24.45000,-4.07519,-2.67021
24.50000,-4.08359,-2.66929
24.55000,-4.09226,-2.67109
24.60000,-4.10039,-2.66665
24.65000,-4.10866,-2.66944
24.70000,-4.11706,-2.66852
24.75000,-4.12532,-2.66733
24.80000,-4.13359,-2.66527
24.85000,-4.14199,-2.66621
24.90000,-4.15026,-2.66548
24.95000,-4.15852,-2.66337
25.00000,-4.16692,-2.66300
25.05000,-4.17519,-2.66368
25.10000,-4.18359,-2.65762
25.15000,-4.19199,-2.66293
25.20000,-4.20012,-2.65618
25.25000,-4.20852,-2.65687
25.30000,-4.21706,-2.65474
25.35000,-4.22506,-2.65312
25.40000,-4.23346,-2.65175
25.45000,-4.24199,-2.64972
25.50000,-4.25012,-2.64817
25.55000,-4.25839,-2.64646
25.60000,-4.26692,-2.64354
25.65000,-4.27492,-2.64282
25.70000,-4.28319,-2.64183
25.75000,-4.29159,-2.63981
25.80000,-4.29986,-2.63776
25.85000,-4.30826,-2.63757
25.90000,-4.31679,-2.63468
25.95000,-4.32519,-2.63497
26.00000,-4.33359,-2.63319
26.05000,-4.34199,-2.63211
26.10000,-4.34999,-2.63181
26.15000,-4.35852,-2.62831
26.20000,-4.36692,-2.62884
26.25000,-4.37506,-2.62680
26.30000,-4.38332,-2.62478
26.35000,-4.39199,-2.62382
26.40000,-4.39999,-2.62302
26.45000,-4.40826,-2.61995
26.50000,-4.41692,-2.61974
26.55000,-4.42506,-2.61780
26.60000,-4.43319,-2.61688
26.65000,-4.44172,-2.61569
26.70000,-4.45012,-2.61416
26.75000,-4.45839,-2.61526
26.80000,-4.46679,-2.61251
26.85000,-4.47532,-2.61350
26.90000,-4.48359,-2.61137
26.95000,-4.49199,-2.61182
27.00000,-4.50026,-2.61005
27.05000,-4.50879,-2.61082
27.10000,-4.51706,-2.60873
27.15000,-4.52519,-2.60908
27.20000,-4.53346,-2.60709
27.25000,-4.54199,-2.60711
27.30000,-4.54999,-2.60614
27.35000,-4.55839,-2.60506
27.40000,-4.56692,-2.60434
27.45000,-4.57519,-2.60406
27.50000,-4.58346,-2.60240
27.55000,-4.59199,-2.60295
27.60000,-4.60039,-2.60104
27.65000,-4.60852,-2.60046
27.70000,-4.61679,-2.59933
27.75000,-4.62546,-2.59747
27.80000,-4.63359,-2.59798
27.85000,-4.64186,-2.59578
27.90000,-4.65039,-2.59687
27.95000,-4.65866,-2.59371
28.00000,-4.66679,-2.59556
28.05000,-4.67519,-2.59219
28.10000,-4.68359,-2.59192
28.15000,-4.69172,-2.59216
28.20000,-4.69999,-2.59011
28.25000,-4.70826,-2.58950
28.30000,-4.71692,-2.58954
28.35000,-4.72519,-2.58814
28.40000,-4.73332,-2.58776
28.45000,-4.74185,-2.58503
28.50000,-4.75039,-2.58719
28.55000,-4.75852,-2.58333
28.60000,-4.76692,-2.58565
28.65000,-4.77559,-2.58278
28.70000,-4.78346,-2.58281
28.75000,-4.79172,-2.58084
28.80000,-4.80025,-2.58262
28.85000,-4.80839,-2.57866
28.90000,-4.81666,-2.58083
28.95000,-4.82506,-2.57740
29.00000,-4.83332,-2.58032
29.05000,-4.84159,-2.57464
29.10000,-4.84999,-2.57947
29.15000,-4.85839,-2.57394
29.20000,-4.86679,-2.57715
29.25000,-4.87519,-2.57400
29.30000,-4.88332,-2.57649
29.35000,-4.89185,-2.57252
29.40000,-4.90025,-2.57351
29.45000,-4.90839,-2.57348
29.50000,-4.91679,-2.56936
29.55000,-4.92532,-2.57323
29.60000,-4.93332,-2.56995
29.65000,-4.94159,-2.56864
29.70000,-4.95025,-2.56916
29.75000,-4.95825,-2.56843
29.80000,-4.96652,-2.56716
29.85000,-4.97519,-2.56652
29.90000,-4.98359,-2.56612
29.95000,-4.99185,-2.56798
30.00000,-5.00039,-2.56406
30.05000,-5.00865,-2.56624
30.10000,-5.01692,-2.56302
30.15000,-5.02519,-2.56462
30.20000,-5.03359,-2.56080
30.25000,-5.04199,-2.56243
30.30000,-5.05039,-2.55965
30.35000,-5.05852,-2.55976
30.40000,-5.06692,-2.55729
30.45000,-5.07532,-2.55822
30.50000,-5.08345,-2.55454
30.55000,-5.09159,-2.55905
30.60000,-5.10025,-2.55033
30.65000,-5.10839,-2.55747
30.70000,-5.11665,-2.55053
30.75000,-5.12532,-2.55374
30.80000,-5.13372,-2.55027
30.85000,-5.14172,-2.55210
30.90000,-5.15025,-2.54783
30.95000,-5.15879,-2.55106
31.00000,-5.16692,-2.54487
31.05000,-5.17532,-2.54920
31.10000,-5.18372,-2.54324
31.15000,-5.19185,-2.54621
31.20000,-5.20012,-2.54015
31.25000,-5.20839,-2.54374
31.30000,-5.21679,-2.53793
31.35000,-5.22505,-2.54035
31.40000,-5.23332,-2.53502
31.45000,-5.24159,-2.53789
31.50000,-5.25025,-2.53104
31.55000,-5.25852,-2.53467
31.60000,-5.26665,-2.52852
31.65000,-5.27519,-2.53109
31.70000,-5.28372,-2.52622
31.75000,-5.29172,-2.52855
31.80000,-5.30012,-2.52316
31.85000,-5.30879,-2.52672
31.90000,-5.31679,-2.52164
31.95000,-5.32505,-2.52436
32.00000,-5.33359,-2.51945
32.05000,-5.34172,-2.52337
32.10000,-5.34999,-2.51591
32.15000,-5.35839,-2.52252
32.20000,-5.36665,-2.51499
32.25000,-5.37492,-2.52052
32.30000,-5.38332,-2.51411
32.35000,-5.39159,-2.51903
32.40000,-5.40012,-2.51344
32.45000,-5.40865,-2.51790
32.50000,-5.41679,-2.51156
32.55000,-5.42532,-2.51620
32.60000,-5.43372,-2.51118
32.65000,-5.44172,-2.51438
32.70000,-5.45012,-2.50867
32.75000,-5.45865,-2.51202
32.80000,-5.46679,-2.50809
32.85000,-5.47492,-2.51012
32.90000,-5.48359,-2.50621
32.95000,-5.49185,-2.50864
33.00000,-5.49999,-2.50492
33.05000,-5.50839,-2.50578
33.10000,-5.51679,-2.50341
33.15000,-5.52492,-2.50472
33.20000,-5.53345,-2.50173
33.25000,-5.54199,-2.50309
33.30000,-5.55025,-2.50135
33.35000,-5.55865,-2.50170
33.40000,-5.56692,-2.50045
33.45000,-5.57532,-2.50006
33.50000,-5.58372,-2.50054
33.55000,-5.59185,-2.49893
33.60000,-5.60025,-2.49852
33.65000,-5.60865,-2.49773
33.70000,-5.61679,-2.49717
33.75000,-5.62492,-2.49561
33.80000,-5.63345,-2.49451
33.85000,-5.64185,-2.49290
33.90000,-5.65012,-2.49378
33.95000,-5.65865,-2.48945
34.00000,-5.66705,-2.49287
34.05000,-5.67519,-2.48751
34.10000,-5.68359,-2.48956
34.15000,-5.69212,-2.48723
34.20000,-5.70025,-2.48821
34.25000,-5.70852,-2.48493
34.30000,-5.71705,-2.48612
34.35000,-5.72519,-2.48527
34.40000,-5.73359,-2.48481
34.45000,-5.74185,-2.48485
34.50000,-5.75025,-2.48335
34.55000,-5.75839,-2.48343
34.60000,-5.76665,-2.48306
34.65000,-5.77492,-2.48182
34.70000,-5.78345,-2.48229
34.75000,-5.79185,-2.48168
34.80000,-5.79999,-2.48164
34.85000,-5.80865,-2.48020
34.90000,-5.81692,-2.48008
34.95000,-5.82505,-2.47886
35.00000,-5.83359,-2.47729
35.05000,-5.84212,-2.47682
35.10000,-5.85012,-2.47606
35.15000,-5.85839,-2.47460
35.20000,-5.86692,-2.47305
35.25000,-5.87505,-2.47318
35.30000,-5.88332,-2.47211
35.35000,-5.89185,-2.47036
35.40000,-5.90012,-2.46857
35.45000,-5.90839,-2.46801
35.50000,-5.91679,-2.46735
35.55000,-5.92519,-2.46670
35.60000,-5.93359,-2.46683
35.65000,-5.94199,-2.46629
35.70000,-5.95012,-2.46721
35.75000,-5.95852,-2.46608
35.80000,-5.96692,-2.46632
35.85000,-5.97505,-2.46659
35.90000,-5.98345,-2.46550
35.95000,-5.99199,-2.46646
36.00000,-5.99999,-2.46520
36.05000,-6.00825,-2.46588
36.10000,-6.01692,-2.46473
36.15000,-6.02505,-2.46576
36.20000,-6.03319,-2.46398
36.25000,-6.04185,-2.46556
36.30000,-6.05012,-2.46471
36.35000,-6.05825,-2.46476
36.40000,-6.06679,-2.46387
36.45000,-6.07519,-2.46510
36.50000,-6.08359,-2.46264
36.55000,-6.09199,-2.46492
36.60000,-6.10025,-2.46175
36.65000,-6.10865,-2.46341
36.70000,-6.11692,-2.46185
36.75000,-6.12505,-2.46312
36.80000,-6.13345,-2.46082
36.85000,-6.14185,-2.46309
36.90000,-6.14998,-2.46186
36.95000,-6.15825,-2.46222
37.00000,-6.16692,-2.46226
37.05000,-6.17519,-2.46230
37.10000,-6.18332,-2.46218
37.15000,-6.19185,-2.46170
37.20000,-6.20038,-2.46287
37.25000,-6.20838,-2.46096
37.30000,-6.21678,-2.46132
37.35000,-6.22545,-2.46116
37.40000,-6.23345,-2.46091
37.45000,-6.24185,-2.46036
37.50000,-6.25038,-2.46103
37.55000,-6.25865,-2.45892
37.60000,-6.26678,-2.45989
37.65000,-6.27518,-2.45792
37.70000,-6.28345,-2.45892
37.75000,-6.29172,-2.45701
37.80000,-6.29998,-2.45932
37.85000,-6.30838,-2.45619
37.90000,-6.31692,-2.45986
37.95000,-6.32532,-2.45483
38.00000,-6.33345,-2.46171
38.05000,-6.34198,-2.45363
38.10000,-6.35052,-2.46030
38.15000,-6.35838,-2.45295
38.20000,-6.36692,-2.45962
38.25000,-6.37545,-2.45205
38.30000,-6.38332,-2.45643
38.35000,-6.39172,-2.45165
38.40000,-6.40025,-2.45606
38.45000,-6.40838,-2.45085
38.50000,-6.41665,-2.45499
38.55000,-6.42505,-2.45011
38.60000,-6.43332,-2.45407
38.65000,-6.44158,-2.45000
38.70000,-6.44998,-2.45303
38.75000,-6.45838,-2.45115
38.80000,-6.46692,-2.45279
38.85000,-6.47518,-2.45153
38.90000,-6.48332,-2.45133
38.95000,-6.49198,-2.45119
39.00000,-6.50038,-2.45116
39.05000,-6.50838,-2.45032
39.10000,-6.51678,-2.45050
39.15000,-6.52532,-2.45022
39.20000,-6.53332,-2.45068
39.25000,-6.54158,-2.44875
39.30000,-6.55025,-2.45038
39.35000,-6.55838,-2.44812
39.40000,-6.56652,-2.45012
39.45000,-6.57505,-2.44845
39.50000,-6.58358,-2.44927
39.55000,-6.59172,-2.45034
39.60000,-6.60012,-2.44768
39.65000,-6.60865,-2.45246
39.70000,-6.61692,-2.44833
39.75000,-6.62532,-2.45026
39.80000,-6.63358,-2.45095
39.85000,-6.64198,-2.45065
39.90000,-6.65025,-2.45169
39.95000,-6.65838,-2.45216
40.00000,-6.66678,-2.44998
40.05000,-6.67532,-2.45167
40.10000,-6.68345,-2.45137
40.15000,-6.69172,-2.45277
40.20000,-6.70025,-2.45267
40.25000,-6.70852,-2.45386
40.30000,-6.71665,-2.45224
40.35000,-6.72518,-2.45267
40.40000,-6.73358,-2.45703
40.45000,-6.74172,-2.45410
40.50000,-6.75038,-2.45581
40.55000,-6.75892,-2.45689
40.60000,-6.76692,-2.45558
40.65000,-6.77532,-2.45793
40.70000,-6.78372,-2.45627
40.75000,-6.79185,-2.45933
40.80000,-6.80012,-2.45549
40.85000,-6.80838,-2.45877
40.90000,-6.81678,-2.45770
40.95000,-6.82492,-2.45872
41.00000,-6.83332,-2.45905
41.05000,-6.84158,-2.46032
41.10000,-6.85038,-2.45737
41.15000,-6.85865,-2.46003
41.20000,-6.86678,-2.45781
41.25000,-6.87532,-2.46149
41.30000,-6.88372,-2.45916
41.35000,-6.89172,-2.46235
41.40000,-6.90025,-2.46055
41.45000,-6.90878,-2.46457
41.50000,-6.91692,-2.46245
41.55000,-6.92518,-2.46324
41.60000,-6.93358,-2.46660
41.65000,-6.94158,-2.46506
41.70000,-6.94985,-2.46638
41.75000,-6.95825,-2.46750
41.80000,-6.96652,-2.46759
41.85000,-6.97492,-2.47139
41.90000,-6.98345,-2.47002
41.95000,-6.99185,-2.47445
42.00000,-7.00038,-2.47069
42.05000,-7.00865,-2.47698
42.10000,-7.01678,-2.47456
42.15000,-7.02532,-2.47683
42.20000,-7.03372,-2.47650
42.25000,-7.04172,-2.47710
42.30000,-7.05012,-2.47795
42.35000,-7.05878,-2.48005
42.40000,-7.06665,-2.48120
42.45000,-7.07492,-2.48116
42.50000,-7.08358,-2.48188
42.55000,-7.09172,-2.48565
42.60000,-7.09985,-2.48453
42.65000,-7.10852,-2.48744
42.70000,-7.11678,-2.48839
42.75000,-7.12505,-2.48934
42.80000,-7.13345,-2.49249
42.85000,-7.14198,-2.49251
42.90000,-7.15025,-2.49633
42.95000,-7.15865,-2.49594
43.00000,-7.16692,-2.49926
43.05000,-7.17532,-2.49994
43.10000,-7.18358,-2.50085
43.15000,-7.19185,-2.50281
43.20000,-7.20012,-2.50363
43.25000,-7.20865,-2.50568
43.30000,-7.21665,-2.50694
43.35000,-7.22492,-2.50734
43.40000,-7.23345,-2.50967
43.45000,-7.24185,-2.51038
43.50000,-7.24998,-2.51218
43.55000,-7.25852,-2.51302
43.60000,-7.26692,-2.51502
43.65000,-7.27505,-2.51501
43.70000,-7.28345,-2.51759
43.75000,-7.29212,-2.51848
43.80000,-7.30038,-2.51961
43.85000,-7.30865,-2.51884
43.90000,-7.31705,-2.52271
43.95000,-7.32518,-2.52061
44.00000,-7.33345,-2.52400
44.05000,-7.34185,-2.52410
44.10000,-7.35025,-2.52627
44.15000,-7.35852,-2.52531
44.20000,-7.36678,-2.52961
44.25000,-7.37505,-2.52692
44.30000,-7.38358,-2.53094
44.35000,-7.39185,-2.53032
44.40000,-7.39998,-2.53320
44.45000,-7.40852,-2.53207
44.50000,-7.41705,-2.53772
44.55000,-7.42518,-2.53327
44.60000,-7.43358,-2.53922
44.65000,-7.44212,-2.53672
44.70000,-7.45011,-2.54116
44.75000,-7.45838,-2.53933
44.80000,-7.46692,-2.54256
44.85000,-7.47492,-2.54227
44.90000,-7.48332,-2.54391
44.95000,-7.49185,-2.54324
45.00000,-7.49998,-2.54653
45.05000,-7.50825,-2.54477
45.10000,-7.51665,-2.54938
45.15000,-7.52505,-2.54749
45.20000,-7.53345,-2.55311
45.25000,-7.54185,-2.54973
45.30000,-7.54998,-2.55515
45.35000,-7.55851,-2.55333
45.40000,-7.56705,-2.55762
45.45000,-7.57518,-2.55616
45.50000,-7.58345,-2.56104
45.55000,-7.59198,-2.55825
45.60000,-7.59998,-2.56369
45.65000,-7.60811,-2.55982
45.70000,-7.61678,-2.56713
45.75000,-7.62491,-2.56371
45.80000,-7.63318,-2.56885
45.85000,-7.64171,-2.56790
45.90000,-7.65025,-2.57218
45.95000,-7.65851,-2.57145
46.00000,-7.66705,-2.57535
46.05000,-7.67531,-2.57505
46.10000,-7.68358,-2.57894
46.15000,-7.69185,-2.57878
46.20000,-7.70025,-2.58182
46.25000,-7.70865,-2.58263
46.30000,-7.71691,-2.58573
46.35000,-7.72518,-2.58735
46.40000,-7.73358,-2.58807
46.45000,-7.74198,-2.59116
46.50000,-7.75011,-2.59246
46.55000,-7.75838,-2.59348
46.60000,-7.76678,-2.59506
46.65000,-7.77505,-2.59792
46.70000,-7.78331,-2.59916
46.75000,-7.79198,-2.60172
46.80000,-7.80025,-2.60259
46.85000,-7.80838,-2.60542
46.90000,-7.81678,-2.60560
46.95000,-7.82545,-2.61039
47.00000,-7.83358,-2.61037
47.05000,-7.84198,-2.61440
47.10000,-7.85038,-2.61313
47.15000,-7.85851,-2.61703
47.20000,-7.86678,-2.61648
47.25000,-7.87531,-2.61975
47.30000,-7.88358,-2.61997
47.35000,-7.89185,-2.62316
47.40000,-7.90011,-2.62394
47.45000,-7.90851,-2.62582
47.50000,-7.91691,-2.62709
47.55000,-7.92518,-2.62946
47.60000,-7.93345,-2.63139
47.65000,-7.94198,-2.63329
47.70000,-7.95038,-2.63527
47.75000,-7.95851,-2.63726
47.80000,-7.96691,-2.63856
47.85000,-7.97545,-2.64189
47.90000,-7.98345,-2.64391
47.95000,-7.99185,-2.64450
48.00000,-8.00038,-2.64719
48.05000,-8.00838,-2.64861
48.10000,-8.01678,-2.65079
48.15000,-8.02518,-2.65243
48.20000,-8.03331,-2.65387
48.25000,-8.04171,-2.65596
48.30000,-8.05011,-2.65718
48.35000,-8.05851,-2.65973
48.40000,-8.06691,-2.66053
48.45000,-8.07531,-2.66434
48.50000,-8.08345,-2.66339
48.55000,-8.09198,-2.66773
48.60000,-8.10038,-2.66760
48.65000,-8.10838,-2.67016
48.70000,-8.11678,-2.66925
48.75000,-8.12531,-2.67287
48.80000,-8.13331,-2.67299
48.85000,-8.14158,-2.67454
48.90000,-8.15025,-2.67472
48.95000,-8.15838,-2.67757
49.00000,-8.16651,-2.67664
49.05000,-8.17505,-2.67943
49.10000,-8.18345,-2.67929
49.15000,-8.19158,-2.68173
49.20000,-8.19998,-2.68299
49.25000,-8.20838,-2.68388
49.30000,-8.21665,-2.68625
49.35000,-8.22505,-2.68712
49.40000,-8.23345,-2.69051
49.45000,-8.24185,-2.69006
49.50000,-8.25011,-2.69397
49.55000,-8.25825,-2.69397
49.60000,-8.26665,-2.69664
49.65000,-8.27518,-2.69668
49.70000,-8.28331,-2.70186
49.75000,-8.29171,-2.70114
49.80000,-8.30038,-2.70467
49.85000,-8.30851,-2.70396
49.90000,-8.31665,-2.70745
49.95000,-8.32518,-2.70776
50.00000,-8.33371,-2.71134
50.05000,-8.34185,-2.71073
50.10000,-8.35025,-2.71420
50.15000,-8.35891,-2.71436
50.20000,-8.36691,-2.71602
50.25000,-8.37531,-2.71524
50.30000,-8.38371,-2.71991
50.35000,-8.39198,-2.71749
50.40000,-8.40025,-2.72077
50.45000,-8.40865,-2.71999
50.50000,-8.41691,-2.72211
50.55000,-8.42518,-2.72141
50.60000,-8.43345,-2.72371
50.65000,-8.44171,-2.72380
50.70000,-8.45038,-2.72639
50.75000,-8.45865,-2.72758
50.80000,-8.46678,-2.72863
50.85000,-8.47531,-2.72984
50.90000,-8.48371,-2.73165
50.95000,-8.49185,-2.73172
51.00000,-8.50025,-2.73404
51.05000,-8.50878,-2.73529
51.10000,-8.51665,-2.73812
51.15000,-8.52505,-2.73737
51.20000,-8.53358,-2.73980
51.25000,-8.54171,-2.74168
51.30000,-8.54998,-2.74345
51.35000,-8.55838,-2.74435
51.40000,-8.56665,-2.74578
51.45000,-8.57491,-2.74699
51.50000,-8.58345,-2.75019
51.55000,-8.59171,-2.75046
51.60000,-8.60025,-2.75270
51.65000,-8.60851,-2.75328
51.70000,-8.61665,-2.75584
51.75000,-8.62518,-2.75379
51.80000,-8.63358,-2.75793
51.85000,-8.64171,-2.75737
51.90000,-8.64998,-2.75906
51.95000,-8.65865,-2.75996
52.00000,-8.66678,-2.76105
52.05000,-8.67505,-2.76125
52.10000,-8.68358,-2.76190
52.15000,-8.69171,-2.76261
52.20000,-8.69985,-2.76332
52.25000,-8.70838,-2.76378
52.30000,-8.71678,-2.76629
52.35000,-8.72505,-2.76668
52.40000,-8.73345,-2.76831
52.45000,-8.74198,-2.76804
52.50000,-8.75025,-2.76964
52.55000,-8.75865,-2.77003
52.60000,-8.76691,-2.77188
52.65000,-8.77531,-2.77107
52.70000,-8.78358,-2.77276
52.75000,-8.79185,-2.77285
52.80000,-8.80024,-2.77257
52.85000,-8.80865,-2.77302
52.90000,-8.81678,-2.77339
52.95000,-8.82505,-2.77387
53.00000,-8.83358,-2.77353
53.05000,-8.84171,-2.77442
53.10000,-8.84998,-2.77359
53.15000,-8.85865,-2.77557
53.20000,-8.86704,-2.77489
53.25000,-8.87504,-2.77735
53.30000,-8.88358,-2.77720
53.35000,-8.89211,-2.77585
53.40000,-8.90024,-2.77860
53.45000,-8.90865,-2.77876
53.50000,-8.91691,-2.77976
53.55000,-8.92518,-2.78011
53.60000,-8.93345,-2.77914
53.65000,-8.94171,-2.78219
53.70000,-8.95011,-2.78130
53.75000,-8.95838,-2.78450
53.80000,-8.96678,-2.78202
53.85000,-8.97491,-2.78520
53.90000,-8.98358,-2.78340
53.95000,-8.99184,-2.78638
54.00000,-9.00011,-2.78562
54.05000,-9.00865,-2.78580
54.10000,-9.01704,-2.78789
54.15000,-9.02518,-2.78618
54.20000,-9.03358,-2.78744
54.25000,-9.04211,-2.78860
54.30000,-9.05011,-2.78910
54.35000,-9.05838,-2.78890
54.40000,-9.06691,-2.79047
54.45000,-9.07504,-2.79029
54.50000,-9.08331,-2.79145
54.55000,-9.09184,-2.79190
54.60000,-9.09998,-2.79204
54.65000,-9.10824,-2.79223
54.70000,-9.11664,-2.79361
54.75000,-9.12504,-2.79309
54.80000,-9.13358,-2.79447
54.85000,-9.14184,-2.79489
54.90000,-9.14998,-2.79471
54.95000,-9.15851,-2.79397
55.00000,-9.16704,-2.79430
55.05000,-9.17518,-2.79516
55.10000,-9.18344,-2.79269
55.15000,-9.19211,-2.79437
55.20000,-9.20011,-2.79281
55.25000,-9.20838,-2.79319
55.30000,-9.21691,-2.79168
55.35000,-9.22504,-2.79285
55.40000,-9.23318,-2.78954
55.45000,-9.24171,-2.79109
55.50000,-9.25011,-2.79007
55.55000,-9.25824,-2.79160
55.60000,-9.26678,-2.78957
55.65000,-9.27518,-2.79365
55.70000,-9.28344,-2.79150
55.75000,-9.29184,-2.79317
55.80000,-9.30024,-2.79235
55.85000,-9.30864,-2.79541
55.90000,-9.31704,-2.79416
55.95000,-9.32518,-2.79735
56.00000,-9.33358,-2.79543
56.05000,-9.34198,-2.79830
56.10000,-9.35011,-2.79743
56.15000,-9.35838,-2.79823
56.20000,-9.36691,-2.79792
56.25000,-9.37504,-2.79952
56.30000,-9.38331,-2.79878
56.35000,-9.39198,-2.79975
56.40000,-9.40038,-2.80190
56.45000,-9.40851,-2.80280
56.50000,-9.41691,-2.80198
56.55000,-9.42544,-2.80342
56.60000,-9.43358,-2.80321
56.65000,-9.44184,-2.80419
56.70000,-9.45038,-2.80535
56.75000,-9.45864,-2.80445
56.80000,-9.46691,-2.80695
56.85000,-9.47531,-2.80666
56.90000,-9.48358,-2.80707
56.95000,-9.49184,-2.80709
57.00000,-9.50011,-2.80793
57.05000,-9.50838,-2.80826
57.10000,-9.51691,-2.80885
57.15000,-9.52518,-2.81030
57.20000,-9.53344,-2.81102
57.25000,-9.54198,-2.81251
57.30000,-9.55038,-2.81397
57.35000,-9.55851,-2.81461
57.40000,-9.56691,-2.81480
57.45000,-9.57558,-2.81664
57.50000,-9.58344,-2.81464
57.55000,-9.59171,-2.81799
57.60000,-9.60011,-2.81646
57.65000,-9.60838,-2.81778
57.70000,-9.61664,-2.81598
57.75000,-9.62504,-2.81646
57.80000,-9.63344,-2.81633
57.85000,-9.64171,-2.81712
57.90000,-9.64998,-2.81560
57.95000,-9.65838,-2.81615
58.00000,-9.66691,-2.81617
58.05000,-9.67531,-2.81780
58.10000,-9.68344,-2.81553
58.15000,-9.69198,-2.81821
58.20000,-9.70038,-2.81600
58.25000,-9.70838,-2.81802
58.30000,-9.71678,-2.81506
58.35000,-9.72544,-2.81840
58.40000,-9.73331,-2.81669
58.45000,-9.74158,-2.81657
58.50000,-9.75024,-2.81688
58.55000,-9.75851,-2.81869
58.60000,-9.76664,-2.81708
58.65000,-9.77504,-2.81875
58.70000,-9.78358,-2.81946
58.75000,-9.79184,-2.82051
58.80000,-9.80038,-2.82118
58.85000,-9.80864,-2.82303
58.90000,-9.81691,-2.82196
58.95000,-9.82531,-2.82592
59.00000,-9.83358,-2.82389
59.05000,-9.84211,-2.82577
59.10000,-9.85038,-2.82587
59.15000,-9.85851,-2.82827
59.20000,-9.86691,-2.82651
59.25000,-9.87544,-2.82886
59.30000,-9.88344,-2.82762
59.35000,-9.89158,-2.82903
59.40000,-9.90024,-2.82807
59.45000,-9.90851,-2.83186
59.50000,-9.91664,-2.82936
59.55000,-9.92531,-2.83292
59.60000,-9.93371,-2.83284
59.65000,-9.94184,-2.83536
59.70000,-9.95024,-2.83403
59.75000,-9.95878,-2.83752
59.80000,-9.96691,-2.83527
59.85000,-9.97531,-2.83746
59.90000,-9.98371,-2.83726
59.95000,-9.99211,-2.83864
60.00000,-10.00038,-2.83781
60.05000,-10.00851,-2.84016
60.10000,-10.01678,-2.83753
60.15000,-10.02518,-2.84065
60.20000,-10.03344,-2.83867
60.25000,-10.04171,-2.84100
60.30000,-10.05024,-2.84019
60.35000,-10.05864,-2.84299
60.40000,-10.06678,-2.84038
60.45000,-10.07531,-2.84646
60.50000,-10.08371,-2.83601
60.55000,-10.09184,-2.84634
60.60000,-10.10024,-2.84062
60.65000,-10.10878,-2.84556
60.70000,-10.11664,-2.84143
60.75000,-10.12504,-2.84809
60.80000,-10.13358,-2.83374
60.85000,-10.14184,-2.85184
60.90000,-10.14998,-2.83129
60.95000,-10.15837,-2.84960
61.00000,-10.16664,-2.83376
61.05000,-10.17504,-2.84754
61.10000,-10.18344,-2.83546
61.15000,-10.19171,-2.84547
61.20000,-10.20024,-2.83705
61.25000,-10.20864,-2.84431
61.30000,-10.21664,-2.83787
61.35000,-10.22531,-2.84076
61.40000,-10.23371,-2.83892
61.45000,-10.24171,-2.84189
61.50000,-10.25011,-2.83427
61.55000,-10.25864,-2.84361
61.60000,-10.26664,-2.83373
61.65000,-10.27491,-2.84162
61.70000,-10.28358,-2.83365
61.75000,-10.29184,-2.84217
61.80000,-10.29998,-2.83601
61.85000,-10.30851,-2.83935
61.90000,-10.31691,-2.83560
61.95000,-10.32504,-2.84021
62.00000,-10.33358,-2.83516
62.05000,-10.34197,-2.83980
62.10000,-10.35024,-2.83661
62.15000,-10.35864,-2.83846
62.20000,-10.36691,-2.83469
62.25000,-10.37531,-2.83859
62.30000,-10.38358,-2.83160
62.35000,-10.39171,-2.83702
62.40000,-10.40011,-2.83136
62.45000,-10.40851,-2.83522
62.50000,-10.41678,-2.83254
62.55000,-10.42491,-2.83288
62.60000,-10.43344,-2.83327
62.65000,-10.44171,-2.83368
62.70000,-10.44997,-2.83260
62.75000,-10.45864,-2.83424
62.80000,-10.46704,-2.83587
62.85000,-10.47517,-2.83502
62.90000,-10.48371,-2.83600
62.95000,-10.49224,-2.83524
63.00000,-10.50024,-2.83547
63.05000,-10.50864,-2.83584
63.10000,-10.51717,-2.83626
63.15000,-10.52531,-2.83653
63.20000,-10.53357,-2.83592
63.25000,-10.54197,-2.83578
63.30000,-10.55024,-2.83660
63.35000,-10.55864,-2.83524
63.40000,-10.56691,-2.83379
63.45000,-10.57517,-2.83167
63.50000,-10.58371,-2.83254
63.55000,-10.59184,-2.83209
63.60000,-10.60011,-2.83248
63.65000,-10.60864,-2.83068
63.70000,-10.61704,-2.83261
63.75000,-10.62517,-2.82961
63.80000,-10.63357,-2.83059
63.85000,-10.64211,-2.83001
63.90000,-10.64997,-2.82924
63.95000,-10.65837,-2.82931
64.00000,-10.66691,-2.83025
64.05000,-10.67504,-2.83076
64.10001,-10.68331,-2.83075
64.15000,-10.69184,-2.83129
64.20000,-10.70011,-2.83170
64.25000,-10.70837,-2.83252
64.30000,-10.71677,-2.83361
64.35001,-10.72504,-2.83319
64.40000,-10.73357,-2.83487
64.45000,-10.74184,-2.83493
64.50000,-10.74997,-2.83603
64.55000,-10.75864,-2.83639
64.60001,-10.76704,-2.83768
64.65000,-10.77504,-2.83937
64.70000,-10.78344,-2.83830
64.75000,-10.79211,-2.84122
64.80000,-10.80011,-2.84142
64.85001,-10.80837,-2.84122
64.90000,-10.81691,-2.84182
64.95000,-10.82504,-2.84196
65.00000,-10.83317,-2.84245
65.05000,-10.84171,-2.84119
65.10001,-10.85011,-2.84358
65.15000,-10.85851,-2.84260
65.20000,-10.86691,-2.84478
65.25000,-10.87531,-2.84075
65.30000,-10.88357,-2.84147
65.35001,-10.89197,-2.84250
65.40000,-10.90024,-2.84277
65.45000,-10.90864,-2.84237
65.50000,-10.91691,-2.84439
65.55000,-10.92504,-2.84460
65.60001,-10.93344,-2.84369
65.65000,-10.94197,-2.84330
65.70001,-10.94997,-2.84416
65.75000,-10.95824,-2.84312
65.80000,-10.96691,-2.84344
65.85001,-10.97504,-2.84306
65.90000,-10.98331,-2.84385
65.95001,-10.99184,-2.84325
66.00000,-11.00037,-2.84404
66.05000,-11.00851,-2.84469
66.10001,-11.01691,-2.84349
66.15000,-11.02544,-2.84418
66.20001,-11.03371,-2.84261
66.25000,-11.04197,-2.84333
66.30000,-11.05037,-2.84230
66.35001,-11.05864,-2.84220
66.40000,-11.06677,-2.84166
66.45001,-11.07517,-2.84060
66.50000,-11.08357,-2.84140
66.55000,-11.09197,-2.84070
66.60001,-11.10024,-2.84256
66.65000,-11.10837,-2.83522
66.70001,-11.11704,-2.81198
66.75000,-11.12531,-2.79373
66.80000,-11.13357,-2.77709
66.85001,-11.14211,-2.78583
66.90000,-11.15051,-2.79196
66.95001,-11.15851,-2.79595
67.00000,-11.16691,-2.79853
67.05000,-11.17557,-2.79738
67.10001,-11.18357,-2.78812
67.15000,-11.19184,-2.79033
67.20001,-11.20037,-2.79369
67.25000,-11.20851,-2.79606
67.30000,-11.21677,-2.78980
67.35001,-11.22517,-2.79024
67.40000,-11.23344,-2.78155
67.45001,-11.24171,-2.74501
67.50000,-11.24997,-2.74328
67.55000,-11.25837,-2.74061
67.60001,-11.26691,-2.73215
67.65000,-11.27517,-2.73173
67.70001,-11.28344,-2.72357
67.75000,-11.29197,-2.73098
67.80000,-11.30037,-2.72165
67.85001,-11.30851,-2.71859
67.90000,-11.31677,-2.70778
67.95001,-11.32544,-2.70269
68.00000,-11.33344,-2.70175
68.05000,-11.34184,-2.70641
68.10001,-11.35024,-2.70808
68.15000,-11.35837,-2.71317
68.20001,-11.36651,-2.71869
68.25000,-11.37517,-2.71919
68.30000,-11.38357,-2.72713
68.35001,-11.39184,-2.72482
68.40000,-11.40037,-2.73156
68.45001,-11.40864,-2.73658
68.50000,-11.41691,-2.74020
68.55000,-11.42517,-2.74703
68.60001,-11.43357,-2.75328
68.65000,-11.44197,-2.75761
68.70001,-11.45024,-2.76169
68.75000,-11.45851,-2.76719
68.80000,-11.46691,-2.77050
68.85001,-11.47544,-2.77639
68.90000,-11.48344,-2.77981
68.95001,-11.49171,-2.78201
69.00000,-11.50024,-2.78561
69.05000,-11.50850,-2.79086
69.10001,-11.51664,-2.79262
69.15000,-11.52530,-2.79762
69.20001,-11.53371,-2.80040
69.25000,-11.54184,-2.80319
69.30000,-11.55024,-2.80687
69.35001,-11.55891,-2.81117
69.40000,-11.56691,-2.81271
69.45001,-11.57530,-2.81475
69.50000,-11.58371,-2.81852
69.55000,-11.59197,-2.82050
69.60001,-11.60011,-2.82221
69.65000,-11.60850,-2.82580
69.70001,-11.61691,-2.82819
69.75000,-11.62530,-2.82958
69.80000,-11.63357,-2.83516
69.85001,-11.64184,-2.83686
69.90000,-11.65037,-2.83808
69.95001,-11.65864,-2.84180
70.00000,-11.66677,-2.84293
70.05000,-11.67530,-2.84696
70.10001,-11.68371,-2.84796
70.15000,-11.69184,-2.84995
70.20001,-11.70024,-2.85333
70.25000,-11.70890,-2.85517
70.30000,-11.71691,-2.85725
70.35001,-11.72517,-2.85990
70.40000,-11.73357,-2.86295
70.45001,-11.74157,-2.86405
70.50000,-11.74984,-2.86541
70.55000,-11.75837,-2.86845
70.60001,-11.76677,-2.86956
70.65000,-11.77517,-2.87343
70.70001,-11.78357,-2.87487
70.75000,-11.79184,-2.87691
70.80000,-11.80024,-2.87891
70.85001,-11.80864,-2.88113
70.90000,-11.81677,-2.88560
70.95001,-11.82517,-2.88182
71.00000,-11.83357,-2.89002
71.05000,-11.84170,-2.88779
71.10001,-11.85010,-2.89173
71.15000,-11.85877,-2.89357
71.20001,-11.86677,-2.89632
71.25000,-11.87504,-2.89542
71.30000,-11.88357,-2.89961
71.35001,-11.89170,-2.89916
71.40000,-11.89984,-2.90315
71.45001,-11.90850,-2.90244
71.50000,-11.91677,-2.90709
71.55000,-11.92504,-2.90562
71.60001,-11.93344,-2.91151
71.65000,-11.94197,-2.91026
71.70001,-11.95037,-2.91577
71.75000,-11.95864,-2.91343
71.80000,-11.96690,-2.91895
71.85001,-11.97544,-2.91700
71.90000,-11.98370,-2.92086
71.95001,-11.99184,-2.92021
72.00000,-12.00024,-2.92222
72.05000,-12.00864,-2.92236
72.10001,-12.01664,-2.92537
72.15000,-12.02490,-2.92395
72.20001,-12.03344,-2.92643
72.25000,-12.04170,-2.93092
72.30000,-12.05010,-2.92952
72.35001,-12.05877,-2.93120
72.40000,-12.06717,-2.93783
72.45001,-12.07517,-2.93467
72.50000,-12.08370,-2.93749
72.55000,-12.09224,-2.93897
72.60001,-12.10037,-2.93994
72.65000,-12.10864,-2.94197
72.70001,-12.11717,-2.94069
72.75000,-12.12530,-2.94380
72.80000,-12.13344,-2.94459
72.85001,-12.14184,-2.94418
72.90000,-12.15024,-2.94754
72.95001,-12.15850,-2.94605
73.00000,-12.16677,-2.94896
73.05000,-12.17504,-2.94809
73.10001,-12.18357,-2.95168
73.15000,-12.19184,-2.94881
73.20001,-12.20010,-2.95482
73.25000,-12.20864,-2.95197
73.30000,-12.21704,-2.95474
73.35001,-12.22504,-2.95645
73.40000,-12.23344,-2.95194
73.45001,-12.24197,-2.95690
73.50000,-12.24997,-2.95608
73.55000,-12.25837,-2.95679
73.60001,-12.26690,-2.95672
73.65000,-12.27517,-2.95831
73.70001,-12.28344,-2.95770
73.75000,-12.29197,-2.95847
73.80000,-12.30010,-2.95831
73.85001,-12.30837,-2.95875
73.90000,-12.31677,-2.95830
73.95001,-12.32504,-2.95846
74.00000,-12.33357,-2.95856
74.05000,-12.34184,-2.95993
74.10001,-12.34997,-2.95799
74.15000,-12.35850,-2.95878
74.20001,-12.36704,-2.95967
74.25000,-12.37504,-2.95786
74.30000,-12.38344,-2.95934
74.35001,-12.39210,-2.95862
74.40000,-12.40010,-2.96075
74.45001,-12.40824,-2.95910
74.50000,-12.41690,-2.95840
74.55000,-12.42504,-2.95940
74.60001,-12.43317,-2.95777
74.65000,-12.44184,-2.96399
74.70001,-12.45024,-2.95866
74.75000,-12.45837,-2.96369
74.80000,-12.46690,-2.95846
74.85001,-12.47530,-2.96381
74.90000,-12.48357,-2.96044
74.95001,-12.49197,-2.96442
75.00000,-12.50024,-2.96007
75.05000,-12.50864,-2.96252
75.10001,-12.51704,-2.96095
75.15000,-12.52517,-2.96629
75.20001,-12.53357,-2.96131
75.25000,-12.54210,-2.96626
75.30000,-12.55024,-2.96286
75.35001,-12.55837,-2.96810
75.40000,-12.56677,-2.96565
75.45001,-12.57504,-2.97003
75.50000,-12.58330,-2.96744
75.55000,-12.59197,-2.97135
75.60001,-12.60037,-2.97053
75.65000,-12.60850,-2.97435
75.70001,-12.61690,-2.97242
75.75000,-12.62544,-2.97523
75.80000,-12.63357,-2.97422
75.85001,-12.64197,-2.97680
75.90000,-12.65037,-2.97691
75.95001,-12.65864,-2.97900
76.00000,-12.66690,-2.97765
76.05000,-12.67530,-2.98296
76.10001,-12.68357,-2.97811
76.15000,-12.69184,-2.98407
76.20001,-12.70010,-2.98150
76.25000,-12.70837,-2.98493
76.30000,-12.71704,-2.98540
76.35001,-12.72530,-2.98854
76.40000,-12.73344,-2.98644
76.45001,-12.74197,-2.98999
76.50000,-12.75037,-2.99077
76.55000,-12.75850,-2.99173
76.60001,-12.76690,-2.99338
76.65000,-12.77544,-2.99258
76.70001,-12.78344,-2.99499
76.75000,-12.79170,-2.99584
76.80000,-12.80037,-2.99738
76.85001,-12.80837,-2.99640
76.90000,-12.81663,-2.99972
76.95001,-12.82517,-2.99955
77.00000,-12.83344,-3.00221
77.05000,-12.84170,-3.00118
77.10001,-12.84997,-3.00406
77.15000,-12.85837,-3.00300
77.20001,-12.86690,-3.00543
77.25000,-12.87517,-3.00679
77.30000,-12.88344,-3.00540
77.35001,-12.89184,-3.00322
77.40000,-12.90037,-3.00670
77.45001,-12.90837,-3.00416
77.50000,-12.91663,-3.00102
77.55000,-12.92530,-3.00576
77.60001,-12.93343,-3.00191
77.65000,-12.94170,-3.00444
77.70001,-12.95037,-3.00238
77.75000,-12.95837,-3.00906
77.80000,-12.96650,-3.00227
77.85001,-12.97517,-3.00727
77.90000,-12.98357,-3.00629
77.95001,-12.99170,-3.01146
78.00000,-13.00023,-3.00619
78.05000,-13.00863,-3.01061
78.10001,-13.01690,-3.01071
78.15000,-13.02530,-3.01483
78.20001,-13.03357,-3.01130
78.25000,-13.04197,-3.01638
78.30000,-13.05037,-3.01366
78.35001,-13.05850,-3.01596
78.40000,-13.06690,-3.01438
78.45001,-13.07517,-3.01778
78.50000,-13.08330,-3.01531
78.55000,-13.09143,-3.01898
78.60001,-13.10010,-3.01504
78.65000,-13.10837,-3.02529
78.70001,-13.11663,-3.01642
78.75000,-13.12530,-3.02765
78.80000,-13.13370,-3.02069
78.85001,-13.14183,-3.02700
78.90000,-13.15023,-3.02586
78.95001,-13.15890,-3.02873
79.00000,-13.16690,-3.02753
79.05000,-13.17530,-3.02923
79.10001,-13.18383,-3.03142
79.15000,-13.19197,-3.03020
79.20001,-13.20023,-3.03441
79.25000,-13.20863,-3.03154
79.30000,-13.21703,-3.03505
79.35001,-13.22530,-3.03746
79.40000,-13.23357,-3.03457
79.45001,-13.24183,-3.03415
79.50000,-13.25037,-3.04191
79.55000,-13.25863,-3.03702
79.60001,-13.26677,-3.03838
79.65000,-13.27530,-3.04336
79.70001,-13.28370,-3.04189
79.75000,-13.29170,-3.04417
79.80000,-13.30023,-3.04255
79.85001,-13.30877,-3.04891
79.90000,-13.31690,-3.04609
79.95001,-13.32517,-3.04827
80.00000,-13.33357,-3.04932
80.05000,-13.34170,-3.05188
80.10001,-13.34997,-3.04801
80.15000,-13.35850,-3.05388
80.20001,-13.36663,-3.04905
80.25000,-13.37490,-3.05371
80.30000,-13.38330,-3.04966
80.35001,-13.39170,-3.05769
80.40000,-13.40010,-3.05053
80.45001,-13.40850,-3.06072
80.50001,-13.41663,-3.05415
80.55000,-13.42517,-3.05963
80.60001,-13.43370,-3.05929
80.65000,-13.44183,-3.06304
80.70001,-13.45010,-3.06234
80.75001,-13.45877,-3.06486
80.80000,-13.46663,-3.06272
80.85001,-13.47503,-3.06649
80.90000,-13.48357,-3.06476
80.95001,-13.49170,-3.06835
81.00001,-13.49983,-3.06758
81.05000,-13.50837,-3.06676
81.10001,-13.51677,-3.07258
81.15000,-13.52503,-3.07135
81.20001,-13.53357,-3.07422
81.25001,-13.54197,-3.07532
81.30000,-13.55037,-3.07791
81.35001,-13.55863,-3.07642
81.40000,-13.56690,-3.08296
81.45001,-13.57530,-3.07328
81.50001,-13.58357,-3.08921
81.55000,-13.59183,-3.07883
81.60001,-13.60023,-3.08277
81.65000,-13.60877,-3.08737
81.70001,-13.61677,-3.08734
81.75001,-13.62503,-3.08747
81.80000,-13.63370,-3.08874
81.85001,-13.64183,-3.09232
81.90000,-13.65010,-3.09100
81.95001,-13.65877,-3.09314
82.00001,-13.66703,-3.09597
82.05000,-13.67517,-3.09591
82.10001,-13.68370,-3.09605
82.15000,-13.69237,-3.09994
82.20001,-13.70037,-3.10000
82.25001,-13.70877,-3.09711
82.30000,-13.71717,-3.10850
82.35001,-13.72530,-3.09973
82.40000,-13.73357,-3.10074
82.45001,-13.74197,-3.10862
82.50001,-13.75023,-3.10618
82.55000,-13.75850,-3.10683
82.60001,-13.76677,-3.11104
82.65000,-13.77503,-3.10681
82.70001,-13.78357,-3.11484
82.75001,-13.79183,-3.11036
82.80000,-13.80010,-3.11784
82.85001,-13.80877,-3.11242
82.90000,-13.81717,-3.12391
82.95001,-13.82517,-3.11106
83.00001,-13.83357,-3.12683
83.05000,-13.84210,-3.11956
83.10001,-13.85010,-3.12112
83.15000,-13.85837,-3.12322
83.20001,-13.86703,-3.12532
83.25001,-13.87503,-3.12312
83.30000,-13.88330,-3.12605
83.35001,-13.89157,-3.12198
83.40000,-13.89983,-3.13086
83.45001,-13.90810,-3.11925
83.50001,-13.91650,-3.13385
83.55000,-13.92503,-3.12446
83.60001,-13.93357,-3.13460
83.65000,-13.94183,-3.12857
83.70001,-13.94997,-3.13255
83.75001,-13.95850,-3.13259
83.80000,-13.96703,-3.13309
83.85001,-13.97503,-3.13765
83.90000,-13.98343,-3.13133
83.95001,-13.99197,-3.13684
84.00001,-14.00010,-3.13841
84.05000,-14.00823,-3.13403
84.10001,-14.01690,-3.13756
84.15000,-14.02503,-3.14070
84.20001,-14.03330,-3.13950
84.25001,-14.04183,-3.13768
84.30000,-14.05023,-3.14243
84.35001,-14.05850,-3.14243
84.40000,-14.06690,-3.14340
84.45001,-14.07530,-3.14297
84.50001,-14.08357,-3.14644
84.55000,-14.09197,-3.14868
84.60001,-14.10037,-3.14790
84.65000,-14.10863,-3.14938
84.70001,-14.11703,-3.15195
84.75001,-14.12517,-3.15235
84.80000,-14.13370,-3.15303
84.85001,-14.14210,-3.15416
84.90000,-14.15010,-3.15940
84.95001,-14.15837,-3.15798
85.00001,-14.16703,-3.15996
85.05000,-14.17517,-3.16248
85.10001,-14.18330,-3.16500
85.15000,-14.19197,-3.16158
85.20001,-14.20037,-3.16749
85.25001,-14.20850,-3.16526
85.30000,-14.21690,-3.17378
85.35001,-14.22543,-3.16674
85.40000,-14.23343,-3.17665
85.45001,-14.24183,-3.17136
85.50001,-14.25037,-3.17681
85.55000,-14.25863,-3.17459
85.60001,-14.26690,-3.17890
85.65000,-14.27530,-3.17881
85.70001,-14.28356,-3.17853
85.75001,-14.29183,-3.18929
85.80000,-14.30023,-3.17428
85.85001,-14.30850,-3.19722
85.90000,-14.31690,-3.18227
85.95001,-14.32517,-3.19808
86.00001,-14.33343,-3.18347
86.05000,-14.34197,-3.20877
86.10001,-14.35036,-3.18781
86.15000,-14.35850,-3.21025
86.20001,-14.36690,-3.19133
86.25001,-14.37543,-3.21603
86.30000,-14.38343,-3.19081
86.35001,-14.39170,-3.22013
86.40000,-14.40023,-3.19929
86.45001,-14.40836,-3.21564
86.50001,-14.41663,-3.21055
86.55000,-14.42503,-3.21608
86.60001,-14.43330,-3.21549
86.65000,-14.44156,-3.21875
86.70001,-14.44996,-3.22229
86.75001,-14.45836,-3.22288
86.80000,-14.46690,-3.22549
86.85001,-14.47530,-3.23126
86.90000,-14.48343,-3.22921
86.95001,-14.49196,-3.23277
87.00001,-14.50036,-3.24139
87.05000,-14.50836,-3.23097
87.10001,-14.51676,-3.24663
87.15000,-14.52543,-3.24039
87.20001,-14.53343,-3.24784
87.25001,-14.54170,-3.24466
87.30000,-14.55036,-3.25415
87.35001,-14.55836,-3.25206
87.40000,-14.56663,-3.25607
87.45001,-14.57503,-3.25988
87.50001,-14.58356,-3.26140
87.55000,-14.59170,-3.25816
87.60001,-14.60023,-3.27726
87.65000,-14.60876,-3.26213
87.70001,-14.61690,-3.27269
87.75001,-14.62530,-3.27939
87.80000,-14.63356,-3.27212
87.85001,-14.64196,-3.27999
87.90000,-14.65023,-3.28365
87.95001,-14.65850,-3.28303
88.00001,-14.66690,-3.28674
88.05000,-14.67530,-3.28553
88.10001,-14.68343,-3.29575
88.15000,-14.69170,-3.28678
88.20001,-14.70023,-3.29861
88.25001,-14.70836,-3.30041
88.30000,-14.71663,-3.29620
88.35001,-14.72530,-3.30468
88.40000,-14.73370,-3.30966
88.45001,-14.74183,-3.30551
88.50001,-14.75036,-3.31537
88.55000,-14.75890,-3.31456
88.60001,-14.76703,-3.32257
88.65000,-14.77543,-3.31950
88.70001,-14.78383,-3.32558
88.75001,-14.79196,-3.32931
88.80000,-14.80023,-3.32887
88.85001,-14.80850,-3.33554
88.90000,-14.81690,-3.33186
88.95001,-14.82516,-3.34849
89.00001,-14.83343,-3.33228
89.05000,-14.84170,-3.35388
89.10001,-14.85023,-3.34310
89.15000,-14.85850,-3.35466
89.20001,-14.86663,-3.35255
89.25001,-14.87530,-3.36010
89.30000,-14.88383,-3.36033
89.35001,-14.89170,-3.36468
89.40000,-14.90010,-3.36592
89.45001,-14.90863,-3.36903
89.50001,-14.91676,-3.36902
89.55000,-14.92503,-3.38104
89.60001,-14.93370,-3.36791
89.65000,-14.94183,-3.38655
89.70001,-14.94996,-3.37744
89.75001,-14.95836,-3.39118
89.80000,-14.96663,-3.38259
89.85001,-14.97503,-3.39450
89.90000,-14.98343,-3.39163
89.95001,-14.99170,-3.40256
90.00001,-15.00023,-3.39307
90.05000,-15.00850,-3.41427
90.10001,-15.01676,-3.39639
90.15000,-15.02530,-3.41881
90.16601,-15.02796,-3.41563
