Time,Extension,Load
(sec),(mm),(N)
0.00000,-0.00027,-0.07318
0.05000,-0.00160,-0.07954
0.10000,-0.00653,-0.07743
0.15000,-0.01547,-0.08986
0.20000,-0.02587,-0.09779
0.25000,-0.03613,-0.11106
0.30000,-0.04613,-0.12067
0.35000,-0.05560,-0.12964
0.40000,-0.06453,-0.13643
0.45000,-0.07360,-0.14625
0.50000,-0.08240,-0.15237
0.55000,-0.09093,-0.15984
0.60000,-0.09960,-0.16574
0.65000,-0.10813,-0.17412
0.70000,-0.11640,-0.18380
0.75000,-0.12493,-0.18562
0.80000,-0.13333,-0.19470
0.85000,-0.14147,-0.20298
0.90000,-0.14987,-0.20829
0.95000,-0.15867,-0.21637
1.00000,-0.16680,-0.22046
1.05000,-0.17507,-0.22890
1.10000,-0.18360,-0.23572
1.15000,-0.19187,-0.24333
1.20000,-0.20013,-0.24531
1.25000,-0.20867,-0.25874
1.30000,-0.21707,-0.25841
1.35000,-0.22547,-0.27105
1.40000,-0.23373,-0.27496
1.45000,-0.24187,-0.28198
1.50000,-0.25040,-0.28735
1.55000,-0.25867,-0.29602
1.60000,-0.26680,-0.30110
1.65000,-0.27533,-0.30800
1.70000,-0.28360,-0.31504
1.75000,-0.29160,-0.31987
1.80000,-0.30013,-0.32941
1.85000,-0.30880,-0.33362
1.90000,-0.31693,-0.34280
1.95000,-0.32520,-0.34801
2.00000,-0.33387,-0.35364
2.05000,-0.34200,-0.36328
2.10000,-0.35040,-0.36665
2.15000,-0.35867,-0.37540
2.20000,-0.36693,-0.38104
2.25000,-0.37520,-0.38871
2.30000,-0.38360,-0.39442
2.35000,-0.39187,-0.40072
2.40000,-0.40027,-0.40836
2.45000,-0.40853,-0.41419
2.50000,-0.41667,-0.42216
2.55000,-0.42520,-0.42715
2.60000,-0.43360,-0.43540
2.65000,-0.44173,-0.44011
2.70000,-0.45027,-0.44978
2.75000,-0.45880,-0.45413
2.80000,-0.46693,-0.46249
2.85000,-0.47520,-0.46728
2.90000,-0.48387,-0.47641
2.95000,-0.49200,-0.47955
3.00000,-0.50013,-0.49002
3.05000,-0.50853,-0.49271
3.10000,-0.51693,-0.50248
3.15000,-0.52507,-0.50724
3.20000,-0.53347,-0.51485
3.25000,-0.54187,-0.51918
3.30000,-0.55000,-0.52839
3.35000,-0.55840,-0.53250
3.40000,-0.56680,-0.54184
3.45000,-0.57520,-0.54676
3.50000,-0.58360,-0.55372
3.55000,-0.59187,-0.56071
3.60000,-0.60013,-0.56639
3.65000,-0.60867,-0.57387
3.70000,-0.61693,-0.58048
3.75000,-0.62520,-0.58671
3.80000,-0.63373,-0.59403
3.85000,-0.64200,-0.60017
3.90000,-0.65000,-0.60638
3.95000,-0.65853,-0.61292
4.00000,-0.66693,-0.61926
4.05000,-0.67507,-0.62743
4.10000,-0.68346,-0.63252
4.15000,-0.69200,-0.63979
4.20000,-0.70026,-0.64657
4.25000,-0.70853,-0.65363
4.30000,-0.71706,-0.65877
4.35000,-0.72546,-0.66791
4.40000,-0.73360,-0.67306
4.45000,-0.74213,-0.68023
4.50000,-0.75040,-0.68689
4.55000,-0.75866,-0.69342
4.60000,-0.76706,-0.70078
4.65000,-0.77520,-0.70624
4.70000,-0.78373,-0.71390
4.75000,-0.79200,-0.71867
4.80000,-0.80013,-0.72824
4.85000,-0.80866,-0.73204
4.90000,-0.81693,-0.74126
4.95000,-0.82506,-0.74586
5.00000,-0.83360,-0.75370
5.05000,-0.84213,-0.75975
5.10000,-0.85026,-0.76664
5.15000,-0.85853,-0.77264
5.20000,-0.86706,-0.78095
5.25000,-0.87533,-0.78559
5.30000,-0.88360,-0.79405
5.35000,-0.89213,-0.79969
5.40000,-0.90053,-0.80727
5.45000,-0.90866,-0.81223
5.50000,-0.91693,-0.81985
5.55000,-0.92520,-0.82598
5.60000,-0.93346,-0.83314
5.65000,-0.94186,-0.83942
5.70000,-0.95000,-0.84587
5.75000,-0.95853,-0.85276
5.80000,-0.96680,-0.85885
5.85000,-0.97506,-0.86607
5.90000,-0.98360,-0.87218
5.95000,-0.99213,-0.87918
6.00000,-1.00026,-0.88599
6.05000,-1.00853,-0.89212
6.10000,-1.01706,-0.89895
6.15000,-1.02520,-0.90470
6.20000,-1.03333,-0.91152
6.25000,-1.04186,-0.91735
6.30000,-1.05026,-0.92549
6.35000,-1.05840,-0.93041
6.40000,-1.06666,-0.93802
6.45000,-1.07506,-0.94318
6.50000,-1.08320,-0.95073
6.55000,-1.09160,-0.95744
6.60000,-1.10013,-0.96196
6.65000,-1.10866,-0.97189
6.70000,-1.11706,-0.97645
6.75000,-1.12533,-0.98450
6.80000,-1.13360,-0.98967
6.85000,-1.14200,-0.99680
6.90000,-1.15026,-1.00141
6.95000,-1.15853,-1.01145
7.00000,-1.16706,-1.01435
7.05000,-1.17533,-1.02382
7.10000,-1.18346,-1.02774
7.15000,-1.19186,-1.03443
7.20000,-1.20026,-1.04292
7.25000,-1.20840,-1.04693
7.30000,-1.21666,-1.05583
7.35000,-1.22533,-1.05968
7.40000,-1.23346,-1.06742
7.45000,-1.24186,-1.07236
7.50000,-1.25040,-1.08312
7.55000,-1.25866,-1.08472
7.60000,-1.26693,-1.09606
7.65000,-1.27546,-1.09655
7.70000,-1.28373,-1.10702
7.75000,-1.29200,-1.11134
7.80000,-1.30053,-1.12050
7.85000,-1.30866,-1.12405
7.90000,-1.31706,-1.13032
7.95000,-1.32533,-1.13770
8.00000,-1.33360,-1.14267
8.05000,-1.34200,-1.15192
8.10000,-1.35026,-1.15397
8.15000,-1.35840,-1.16317
8.20000,-1.36693,-1.16589
8.25000,-1.37546,-1.17683
8.30000,-1.38360,-1.17925
8.35000,-1.39186,-1.18977
8.40000,-1.40053,-1.18876
8.45000,-1.40866,-1.20257
8.50000,-1.41693,-1.20197
8.55000,-1.42546,-1.21421
8.60000,-1.43373,-1.21637
8.65000,-1.44200,-1.22485
8.70000,-1.45026,-1.22734
8.75000,-1.45853,-1.23608
8.80000,-1.46680,-1.24135
8.85000,-1.47520,-1.24774
8.90000,-1.48333,-1.25266
8.95000,-1.49186,-1.25940
9.00000,-1.50026,-1.26506
9.05000,-1.50840,-1.27048
9.10000,-1.51693,-1.27817
9.15000,-1.52546,-1.28200
9.20000,-1.53346,-1.29177
9.25000,-1.54186,-1.29288
9.30000,-1.55053,-1.30112
9.35000,-1.55866,-1.30831
9.40000,-1.56680,-1.31143
9.45000,-1.57520,-1.31971
9.50000,-1.58360,-1.32463
9.55000,-1.59173,-1.32824
9.60000,-1.60000,-1.33693
9.65000,-1.60853,-1.33880
9.70000,-1.61666,-1.35043
9.75000,-1.62506,-1.35023
9.80000,-1.63346,-1.35992
9.85000,-1.64186,-1.36346
9.90000,-1.65026,-1.37116
9.95000,-1.65853,-1.37644
10.00000,-1.66693,-1.38126
10.05000,-1.67546,-1.38779
10.10000,-1.68373,-1.39258
10.15000,-1.69186,-1.39992
10.20000,-1.70040,-1.40463
10.25000,-1.70866,-1.40926
10.30000,-1.71680,-1.41531
10.35000,-1.72520,-1.42014
10.40000,-1.73360,-1.42656
10.45000,-1.74160,-1.43301
10.50000,-1.74986,-1.43544
10.55000,-1.75866,-1.44293
10.60000,-1.76680,-1.44677
10.65000,-1.77520,-1.45415
10.70000,-1.78386,-1.45878
10.75000,-1.79213,-1.46596
10.80000,-1.80040,-1.46844
10.85000,-1.80880,-1.47518
10.90000,-1.81706,-1.48061
10.95000,-1.82546,-1.48585
11.00000,-1.83386,-1.49072
11.05000,-1.84186,-1.49548
11.10000,-1.85040,-1.50047
11.15000,-1.85866,-1.50786
11.20000,-1.86693,-1.51167
11.25000,-1.87533,-1.51859
11.30000,-1.88360,-1.52103
11.35000,-1.89173,-1.52707
11.40000,-1.90026,-1.53345
11.45000,-1.90866,-1.53887
11.50000,-1.91693,-1.54303
11.55000,-1.92520,-1.54818
11.60000,-1.93386,-1.55017
11.65000,-1.94200,-1.56095
11.70000,-1.95026,-1.56019
11.75000,-1.95866,-1.56999
11.80000,-1.96680,-1.56939
11.85000,-1.97493,-1.57642
11.90000,-1.98333,-1.58254
11.95000,-1.99173,-1.58540
12.00000,-2.00013,-1.59244
12.05000,-2.00840,-1.59514
12.10000,-2.01653,-1.60001
12.15000,-2.02520,-1.60697
12.20000,-2.03359,-1.60879
12.25000,-2.04173,-1.61722
12.30000,-2.05013,-1.61750
12.35000,-2.05866,-1.62426
12.40000,-2.06680,-1.63092
12.45000,-2.07520,-1.63243
12.50000,-2.08373,-1.64002
12.55000,-2.09199,-1.64031
12.60000,-2.10026,-1.64913
12.65000,-2.10853,-1.65070
12.70000,-2.11693,-1.65753
12.75000,-2.12506,-1.65976
12.80000,-2.13346,-1.66595
12.85000,-2.14199,-1.66879
12.90000,-2.15013,-1.67585
12.95000,-2.15839,-1.67682
13.00000,-2.16679,-1.68549
13.05000,-2.17533,-1.68585
13.10000,-2.18359,-1.69344
13.15000,-2.19186,-1.69541
13.20000,-2.20026,-1.70216
13.25000,-2.20879,-1.70399
13.30000,-2.21706,-1.70968
13.35000,-2.22533,-1.71357
13.40000,-2.23386,-1.71929
13.45000,-2.24199,-1.72197
13.50000,-2.25013,-1.72580
13.55000,-2.25866,-1.72982
13.60000,-2.26693,-1.73597
13.65000,-2.27493,-1.73826
13.70000,-2.28333,-1.74189
13.75000,-2.29199,-1.74738
13.80000,-2.30026,-1.75107
13.85000,-2.30853,-1.75544
13.90000,-2.31706,-1.75840
13.95000,-2.32546,-1.76482
14.00000,-2.33373,-1.76531
14.05000,-2.34213,-1.77233
14.10000,-2.35053,-1.77245
14.15000,-2.35879,-1.78133
14.20000,-2.36706,-1.78013
14.25000,-2.37519,-1.78621
14.30000,-2.38359,-1.78881
14.35000,-2.39186,-1.79172
14.40000,-2.39999,-1.79749
14.45000,-2.40853,-1.79830
14.50000,-2.41679,-1.80356
14.55000,-2.42493,-1.80709
14.60000,-2.43359,-1.80980
14.65000,-2.44213,-1.81532
14.70000,-2.45026,-1.81649
14.75000,-2.45866,-1.82158
14.80000,-2.46719,-1.82203
14.85000,-2.47533,-1.82766
14.90000,-2.48359,-1.82916
14.95000,-2.49213,-1.83160
15.00000,-2.50039,-1.83562
15.05000,-2.50853,-1.83599
15.10000,-2.51693,-1.84056
15.15000,-2.52519,-1.84200
15.20000,-2.53373,-1.84543
15.25000,-2.54186,-1.84875
15.30000,-2.55013,-1.84913
15.35000,-2.55866,-1.85578
15.40000,-2.56693,-1.85552
15.45000,-2.57506,-1.86285
15.50000,-2.58359,-1.86256
15.55000,-2.59213,-1.86776
15.60000,-2.60026,-1.86981
15.65000,-2.60853,-1.87373
15.70000,-2.61706,-1.87683
15.75000,-2.62533,-1.87945
15.80000,-2.63346,-1.88267
15.85000,-2.64199,-1.88587
15.90000,-2.65026,-1.88821
15.95000,-2.65839,-1.89181
16.00000,-2.66666,-1.89370
16.05000,-2.67519,-1.89811
16.10000,-2.68333,-1.89870
16.15000,-2.69173,-1.90498
16.20000,-2.70013,-1.90679
16.25000,-2.70866,-1.90931
16.30000,-2.71693,-1.91442
16.35000,-2.72519,-1.91557
16.40000,-2.73359,-1.92117
16.45000,-2.74199,-1.92106
16.50000,-2.75039,-1.92704
16.55000,-2.75853,-1.92670
16.60000,-2.76706,-1.93189
16.65000,-2.77533,-1.93407
16.70000,-2.78346,-1.93822
16.75000,-2.79186,-1.93768
16.80000,-2.80026,-1.94502
16.85000,-2.80839,-1.94448
16.90000,-2.81666,-1.95131
16.95000,-2.82533,-1.94951
17.00000,-2.83359,-1.95724
17.05000,-2.84186,-1.95529
17.10000,-2.85053,-1.96345
17.15000,-2.85866,-1.96165
17.20000,-2.86706,-1.96820
17.25000,-2.87546,-1.96605
17.30000,-2.88386,-1.97512
17.35000,-2.89213,-1.97074
17.40000,-2.90026,-1.98045
17.45000,-2.90839,-1.97559
17.50000,-2.91693,-1.98307
17.55000,-2.92519,-1.98190
17.60000,-2.93333,-1.98659
17.65000,-2.94199,-1.98769
17.70000,-2.95026,-1.98949
17.75000,-2.95839,-1.99307
17.80000,-2.96693,-1.99430
17.85000,-2.97546,-1.99643
17.90000,-2.98359,-2.00110
17.95000,-2.99186,-1.99958
18.00000,-3.00053,-2.00685
18.05000,-3.00866,-2.00658
18.10000,-3.01693,-2.01065
18.15000,-3.02533,-2.01233
18.20000,-3.03373,-2.01511
18.25000,-3.04186,-2.01896
18.30000,-3.05013,-2.02053
18.35000,-3.05853,-2.02123
18.40000,-3.06679,-2.02726
18.45000,-3.07506,-2.02557
18.50000,-3.08319,-2.03092
18.55000,-3.09186,-2.02946
18.60000,-3.10026,-2.03664
18.65000,-3.10839,-2.03247
18.70000,-3.11693,-2.04106
18.75000,-3.12546,-2.03731
18.80000,-3.13359,-2.04410
18.85000,-3.14186,-2.04196
18.90000,-3.15039,-2.04578
18.95000,-3.15866,-2.04815
19.00000,-3.16679,-2.04818
19.05000,-3.17519,-2.04886
19.10000,-3.18359,-2.05183
19.15000,-3.19173,-2.05192
19.20000,-3.20013,-2.05402
19.25000,-3.20853,-2.05511
19.30000,-3.21666,-2.05676
19.35000,-3.22493,-2.05501
19.40000,-3.23333,-2.05952
19.45000,-3.24186,-2.05683
19.50000,-3.25026,-2.06064
19.55000,-3.25853,-2.05856
19.60000,-3.26693,-2.05908
19.65000,-3.27533,-2.06014
19.70000,-3.28359,-2.06052
19.75000,-3.29186,-2.05913
19.80000,-3.30039,-2.06320
19.85000,-3.30866,-2.05969
19.90000,-3.31679,-2.06707
19.95000,-3.32519,-2.06151
20.00000,-3.33359,-2.06608
20.05000,-3.34186,-2.06426
20.10000,-3.35013,-2.06832
20.15000,-3.35866,-2.06570
20.20000,-3.36693,-2.06871
20.25000,-3.37519,-2.06810
20.30000,-3.38373,-2.06985
20.35000,-3.39199,-2.06929
20.40000,-3.40026,-2.07137
20.45000,-3.40879,-2.07196
20.50000,-3.41706,-2.07229
20.55000,-3.42546,-2.07281
20.60000,-3.43386,-2.07539
20.65000,-3.44186,-2.07435
20.70000,-3.45039,-2.07652
20.75000,-3.45866,-2.07735
20.80000,-3.46666,-2.07733
20.85000,-3.47519,-2.07944
20.90000,-3.48359,-2.08063
20.95000,-3.49172,-2.08082
21.00000,-3.50026,-2.08386
21.05000,-3.50892,-2.08173
21.10000,-3.51692,-2.08483
21.15000,-3.52532,-2.08480
21.20000,-3.53386,-2.08496
21.25000,-3.54212,-2.08644
21.30000,-3.55039,-2.08514
21.35000,-3.55879,-2.08953
21.40000,-3.56706,-2.08710
21.45000,-3.57532,-2.09069
21.50000,-3.58359,-2.09014
21.55000,-3.59186,-2.09168
21.60000,-3.60039,-2.09361
21.65000,-3.60866,-2.09420
21.70000,-3.61679,-2.09588
21.75000,-3.62532,-2.09599
21.80000,-3.63372,-2.09722
21.85000,-3.64186,-2.09918
21.90000,-3.65026,-2.09958
21.95000,-3.65879,-2.10204
22.00000,-3.66692,-2.10105
22.05000,-3.67519,-2.10236
22.10000,-3.68372,-2.10563
22.15000,-3.69199,-2.10334
22.20000,-3.70012,-2.10678
22.25000,-3.70852,-2.10495
22.30000,-3.71692,-2.10900
22.35000,-3.72506,-2.10715
22.40000,-3.73332,-2.11062
22.45000,-3.74172,-2.10709
22.50000,-3.75012,-2.11108
22.55000,-3.75839,-2.11185
22.60000,-3.76679,-2.11332
22.65000,-3.77532,-2.11208
22.70000,-3.78372,-2.11301
22.75000,-3.79186,-2.11508
22.80000,-3.80026,-2.11504
22.85000,-3.80879,-2.11636
22.90000,-3.81706,-2.11718
22.95000,-3.82519,-2.11399
23.00000,-3.83372,-2.12024
23.05000,-3.84199,-2.11658
23.10000,-3.85012,-2.12136
23.15000,-3.85852,-2.11721
23.20000,-3.86706,-2.12046
23.25000,-3.87506,-2.12094
23.30000,-3.88332,-2.12096
23.35000,-3.89199,-2.12049
23.40000,-3.90026,-2.12508
23.45000,-3.90852,-2.11606
23.50000,-3.91706,-2.12865
23.55000,-3.92532,-2.11899
23.60000,-3.93359,-2.12696
23.65000,-3.94212,-2.11918
23.70000,-3.95039,-2.12711
23.75000,-3.95879,-2.11665
23.80000,-3.96706,-2.13310
23.85000,-3.97519,-2.11285
23.90000,-3.98372,-2.13311
23.95000,-3.99199,-2.11401
24.00000,-4.00012,-2.12566
24.05000,-4.00866,-2.12121
24.10000,-4.01706,-2.11731
24.15000,-4.02519,-2.12345
24.20000,-4.03359,-2.11500
24.25000,-4.04226,-2.12225
24.30000,-4.05026,-2.11392
24.35000,-4.05852,-2.10926
24.40000,-4.06719,-2.11703
24.45000,-4.07532,-2.11082
24.50000,-4.08372,-2.11541
24.55000,-4.09212,-2.10821
24.60000,-4.10052,-2.11410
24.65000,-4.10866,-2.10758
24.70000,-4.11692,-2.10793
24.75000,-4.12519,-2.11157
24.80000,-4.13359,-2.10906
24.85000,-4.14186,-2.10604
24.90000,-4.14999,-2.11012
24.95000,-4.15852,-2.10576
25.00000,-4.16692,-2.10929
25.05000,-4.17506,-2.10382
25.10000,-4.18359,-2.11229
25.15000,-4.19212,-2.09670
25.20000,-4.20026,-2.11628
25.25000,-4.20852,-2.09137
25.30000,-4.21706,-2.11319
25.35000,-4.22532,-2.09225
25.40000,-4.23346,-2.10879
25.45000,-4.24186,-2.09062
25.50000,-4.25026,-2.10597
25.55000,-4.25839,-2.08902
25.60000,-4.26666,-2.10333
25.65000,-4.27506,-2.08421
25.70000,-4.28346,-2.10307
25.75000,-4.29172,-2.08702
25.80000,-4.30012,-2.09471
25.85000,-4.30866,-2.09022
25.90000,-4.31706,-2.09325
25.95000,-4.32519,-2.08978
26.00000,-4.33359,-2.08793
26.05000,-4.34212,-2.09169
26.10000,-4.35039,-2.08829
26.15000,-4.35852,-2.08976
26.20000,-4.36706,-2.08394
26.25000,-4.37532,-2.09712
26.30000,-4.38346,-2.07821
26.35000,-4.39186,-2.09238
26.40000,-4.40039,-2.08367
26.45000,-4.40839,-2.08856
26.50000,-4.41666,-2.08191
26.55000,-4.42532,-2.08846
26.60000,-4.43359,-2.08348
26.65000,-4.44186,-2.08683
26.70000,-4.45052,-2.08746
26.75000,-4.45892,-2.08702
26.80000,-4.46706,-2.08119
26.85000,-4.47546,-2.09409
26.90000,-4.48372,-2.08140
26.95000,-4.49212,-2.08946
27.00000,-4.50039,-2.08492
27.05000,-4.50852,-2.09201
27.10000,-4.51706,-2.08193
27.15000,-4.52532,-2.09229
27.20000,-4.53346,-2.08328
27.25000,-4.54199,-2.09216
27.30000,-4.55026,-2.08369
27.35000,-4.55839,-2.09043
27.40000,-4.56692,-2.08594
27.45000,-4.57546,-2.09134
27.50000,-4.58359,-2.08645
27.55000,-4.59186,-2.09029
27.60000,-4.60052,-2.08698
27.65000,-4.60866,-2.08910
27.70000,-4.61692,-2.08773
27.75000,-4.62532,-2.08740
27.80000,-4.63372,-2.08866
27.85000,-4.64186,-2.08749
27.90000,-4.65026,-2.08837
27.95000,-4.65839,-2.08515
28.00000,-4.66692,-2.08889
28.05000,-4.67519,-2.08651
28.10000,-4.68332,-2.08729
28.15000,-4.69186,-2.08573
28.20000,-4.70039,-2.08852
28.25000,-4.70852,-2.08706
28.30000,-4.71692,-2.08604
28.35000,-4.72546,-2.08699
28.40000,-4.73359,-2.08894
28.45000,-4.74185,-2.08561
28.50000,-4.75039,-2.08731
28.55000,-4.75879,-2.08859
28.60000,-4.76692,-2.08639
28.65000,-4.77519,-2.08894
28.70000,-4.78359,-2.08849
28.75000,-4.79185,-2.09019
28.80000,-4.80012,-2.08930
28.85000,-4.80852,-2.09144
28.90000,-4.81679,-2.09028
28.95000,-4.82506,-2.09383
29.00000,-4.83345,-2.09183
29.05000,-4.84185,-2.09509
29.10000,-4.85039,-2.09435
29.15000,-4.85865,-2.09781
29.20000,-4.86692,-2.09617
29.25000,-4.87546,-2.09893
29.30000,-4.88372,-2.09958
29.35000,-4.89199,-2.10116
29.40000,-4.90039,-2.10188
29.45000,-4.90865,-2.10288
29.50000,-4.91679,-2.10360
29.55000,-4.92519,-2.10550
29.60000,-4.93372,-2.10590
29.65000,-4.94185,-2.10728
29.70000,-4.95012,-2.10985
29.75000,-4.95879,-2.11042
29.80000,-4.96692,-2.11191
29.85000,-4.97519,-2.11312
29.90000,-4.98372,-2.11520
29.95000,-4.99212,-2.11539
30.00000,-5.00039,-2.11732
30.05000,-5.00879,-2.11837
30.10000,-5.01719,-2.12089
30.15000,-5.02559,-2.11971
30.20000,-5.03385,-2.12390
30.25000,-5.04185,-2.12220
30.30000,-5.05039,-2.12498
30.35000,-5.05865,-2.12572
30.40000,-5.06665,-2.12733
30.45000,-5.07519,-2.12720
30.50000,-5.08372,-2.13100
30.55000,-5.09185,-2.13212
30.60000,-5.10039,-2.13278
30.65000,-5.10892,-2.13511
30.70000,-5.11705,-2.13704
30.75000,-5.12532,-2.13687
30.80000,-5.13399,-2.13847
30.85000,-5.14212,-2.14032
30.90000,-5.15039,-2.14217
30.95000,-5.15879,-2.14143
31.00000,-5.16692,-2.14293
31.05000,-5.17519,-2.14634
31.10000,-5.18359,-2.14453
31.15000,-5.19185,-2.14728
31.20000,-5.20012,-2.14815
31.25000,-5.20839,-2.15131
31.30000,-5.21652,-2.14973
31.35000,-5.22505,-2.15216
31.40000,-5.23345,-2.15386
31.45000,-5.24172,-2.15699
31.50000,-5.25025,-2.15607
31.55000,-5.25879,-2.15828
31.60000,-5.26692,-2.16104
31.65000,-5.27519,-2.16148
31.70000,-5.28385,-2.16184
31.75000,-5.29199,-2.16540
31.80000,-5.30012,-2.16713
31.85000,-5.30852,-2.16491
31.90000,-5.31692,-2.16794
31.95000,-5.32519,-2.16889
32.00000,-5.33345,-2.17072
32.05000,-5.34185,-2.16963
32.10000,-5.35012,-2.17190
32.15000,-5.35839,-2.17221
32.20000,-5.36692,-2.17364
32.25000,-5.37545,-2.17324
32.30000,-5.38372,-2.17674
32.35000,-5.39199,-2.17584
32.40000,-5.40039,-2.17665
32.45000,-5.40879,-2.18105
32.50000,-5.41705,-2.17841
32.55000,-5.42532,-2.18253
32.60000,-5.43385,-2.18200
32.65000,-5.44199,-2.18538
32.70000,-5.45012,-2.18268
32.75000,-5.45865,-2.18697
32.80000,-5.46705,-2.18554
32.85000,-5.47505,-2.18826
32.90000,-5.48332,-2.18862
32.95000,-5.49199,-2.19034
33.00000,-5.50012,-2.18888
33.05000,-5.50839,-2.19409
33.10000,-5.51692,-2.19317
33.15000,-5.52545,-2.19212
33.20000,-5.53385,-2.19730
33.25000,-5.54212,-2.19887
33.30000,-5.55039,-2.19751
33.35000,-5.55879,-2.20004
33.40000,-5.56705,-2.20314
33.45000,-5.57519,-2.20147
33.50000,-5.58372,-2.20555
33.55000,-5.59199,-2.20417
33.60000,-5.59999,-2.21044
33.65000,-5.60852,-2.20528
33.70000,-5.61692,-2.21225
33.75000,-5.62519,-2.21093
33.80000,-5.63359,-2.21432
33.85000,-5.64212,-2.21291
33.90000,-5.65025,-2.21934
33.95000,-5.65852,-2.21461
34.00000,-5.66719,-2.22196
34.05000,-5.67532,-2.21925
34.10000,-5.68359,-2.22456
34.15000,-5.69199,-2.22111
34.20000,-5.70039,-2.22821
34.25000,-5.70865,-2.22484
34.30000,-5.71692,-2.22863
34.35000,-5.72519,-2.22948
34.40000,-5.73359,-2.22866
34.45000,-5.74185,-2.22903
34.50000,-5.74999,-2.23729
34.55000,-5.75865,-2.23044
34.60000,-5.76705,-2.23668
34.65000,-5.77519,-2.23664
34.70000,-5.78372,-2.23890
34.75000,-5.79212,-2.23698
34.80000,-5.80025,-2.24123
34.85000,-5.80852,-2.24193
34.90000,-5.81719,-2.24103
34.95000,-5.82532,-2.24354
35.00000,-5.83345,-2.24497
35.05000,-5.84185,-2.24556
35.10000,-5.85025,-2.24734
35.15000,-5.85839,-2.24866
35.20000,-5.86679,-2.24851
35.25000,-5.87505,-2.25018
35.30000,-5.88332,-2.25412
35.35000,-5.89172,-2.24926
35.40000,-5.90012,-2.25577
35.45000,-5.90865,-2.25476
35.50000,-5.91705,-2.25760
35.55000,-5.92532,-2.25593
35.60000,-5.93359,-2.26019
35.65000,-5.94212,-2.25661
35.70000,-5.95025,-2.26077
35.75000,-5.95852,-2.25917
35.80000,-5.96719,-2.26127
35.85000,-5.97532,-2.26166
35.90000,-5.98332,-2.26706
35.95000,-5.99185,-2.26031
36.00000,-6.00025,-2.26803
36.05000,-6.00839,-2.26750
36.10000,-6.01679,-2.27167
36.15000,-6.02545,-2.26584
36.20000,-6.03359,-2.27681
36.25000,-6.04185,-2.27004
36.30000,-6.05052,-2.27876
36.35000,-6.05879,-2.27340
36.40000,-6.06705,-2.27806
36.45000,-6.07532,-2.27848
36.50000,-6.08372,-2.28200
36.55000,-6.09212,-2.27775
36.60000,-6.10038,-2.28143
36.65000,-6.10852,-2.28653
36.70000,-6.11705,-2.27990
36.75000,-6.12532,-2.28648
36.80000,-6.13345,-2.28223
36.85000,-6.14198,-2.29041
36.90000,-6.15038,-2.28184
36.95000,-6.15852,-2.29328
37.00000,-6.16705,-2.28576
37.05000,-6.17545,-2.29517
37.10000,-6.18372,-2.28747
37.15000,-6.19198,-2.29865
37.20000,-6.20052,-2.29014
37.25000,-6.20878,-2.30044
37.30000,-6.21692,-2.29286
37.35000,-6.22545,-2.30161
37.40000,-6.23372,-2.29704
37.45000,-6.24198,-2.30511
37.50000,-6.25025,-2.29915
37.55000,-6.25852,-2.30538
37.60000,-6.26692,-2.30475
37.65000,-6.27518,-2.30803
37.70000,-6.28332,-2.30178
37.75000,-6.29198,-2.31168
37.80000,-6.30038,-2.30831
37.85000,-6.30852,-2.30900
37.90000,-6.31692,-2.31064
37.95000,-6.32532,-2.31214
38.00000,-6.33358,-2.31408
38.05000,-6.34198,-2.31175
38.10000,-6.35065,-2.31416
38.15000,-6.35878,-2.31675
38.20000,-6.36692,-2.31722
38.25000,-6.37518,-2.31379
38.30000,-6.38345,-2.32004
38.35000,-6.39158,-2.31590
38.40000,-6.39998,-2.31824
38.45000,-6.40852,-2.32299
38.50000,-6.41678,-2.31628
38.55000,-6.42518,-2.32529
38.60000,-6.43358,-2.32035
38.65000,-6.44212,-2.32778
38.70000,-6.45038,-2.32040
38.75000,-6.45865,-2.33037
38.80000,-6.46705,-2.32160
38.85000,-6.47545,-2.33034
38.90000,-6.48372,-2.32500
38.95000,-6.49185,-2.33167
39.00000,-6.50052,-2.32685
39.05000,-6.50878,-2.33210
39.10000,-6.51678,-2.33288
39.15000,-6.52518,-2.33053
39.20000,-6.53372,-2.33308
39.25000,-6.54172,-2.33275
39.30000,-6.55012,-2.33363
39.35000,-6.55878,-2.33291
39.40000,-6.56692,-2.33714
39.45000,-6.57518,-2.33396
39.50000,-6.58372,-2.33814
39.55000,-6.59212,-2.33580
39.60000,-6.60038,-2.33899
39.65000,-6.60878,-2.33731
39.70000,-6.61718,-2.33993
39.75000,-6.62545,-2.33747
39.80000,-6.63372,-2.34151
39.85000,-6.64185,-2.33863
39.90000,-6.65038,-2.34046
39.95000,-6.65865,-2.34116
40.00000,-6.66678,-2.34044
40.05000,-6.67518,-2.34101
40.10000,-6.68358,-2.34146
40.15000,-6.69172,-2.34222
40.20000,-6.70025,-2.34204
40.25000,-6.70878,-2.34527
40.30000,-6.71692,-2.34224
40.35000,-6.72518,-2.34601
40.40000,-6.73372,-2.34360
40.45000,-6.74198,-2.34673
40.50000,-6.75038,-2.34503
40.55000,-6.75878,-2.34901
40.60000,-6.76718,-2.34625
40.65000,-6.77532,-2.34843
40.70000,-6.78358,-2.34574
40.75000,-6.79198,-2.34991
40.80000,-6.80038,-2.34717
40.85000,-6.80852,-2.34922
40.90000,-6.81665,-2.34779
40.95000,-6.82518,-2.34944
41.00000,-6.83372,-2.34811
41.05000,-6.84185,-2.35063
41.10000,-6.85025,-2.34860
41.15000,-6.85878,-2.35035
41.20000,-6.86692,-2.34965
41.25000,-6.87518,-2.35060
41.30000,-6.88372,-2.35016
41.35000,-6.89185,-2.35104
41.40000,-6.90012,-2.35121
41.45000,-6.90852,-2.35101
41.50000,-6.91692,-2.35225
41.55000,-6.92505,-2.35093
41.60000,-6.93345,-2.35179
41.65000,-6.94185,-2.35212
41.70000,-6.94998,-2.35196
41.75000,-6.95838,-2.35131
41.80000,-6.96678,-2.35233
41.85000,-6.97532,-2.35264
41.90000,-6.98358,-2.35181
41.95000,-6.99185,-2.35271
42.00000,-7.00025,-2.35306
42.05000,-7.00878,-2.35262
42.10000,-7.01705,-2.35464
42.15000,-7.02532,-2.35400
42.20000,-7.03385,-2.35602
42.25000,-7.04198,-2.35428
42.30000,-7.04998,-2.35585
42.35000,-7.05852,-2.35520
42.40000,-7.06692,-2.35676
42.45000,-7.07492,-2.35743
42.50000,-7.08332,-2.35756
42.55000,-7.09212,-2.35839
42.60000,-7.10038,-2.35911
42.65000,-7.10865,-2.35876
42.70000,-7.11718,-2.36062
42.75000,-7.12545,-2.36134
42.80000,-7.13372,-2.36105
42.85000,-7.14212,-2.36215
42.90000,-7.15038,-2.36234
42.95000,-7.15878,-2.36358
43.00000,-7.16705,-2.36313
43.05000,-7.17518,-2.36436
43.10000,-7.18372,-2.36420
43.15000,-7.19198,-2.36532
43.20000,-7.20012,-2.36538
43.25000,-7.20852,-2.36558
43.30000,-7.21692,-2.36707
43.35000,-7.22505,-2.36633
43.40000,-7.23358,-2.36754
43.45000,-7.24212,-2.36887
43.50000,-7.25025,-2.36951
43.55000,-7.25865,-2.36935
43.60000,-7.26718,-2.37213
43.65000,-7.27545,-2.37167
43.70000,-7.28372,-2.37259
43.75000,-7.29212,-2.37263
43.80000,-7.30038,-2.37590
43.85000,-7.30852,-2.37428
43.90000,-7.31692,-2.37639
43.95000,-7.32518,-2.37658
44.00000,-7.33358,-2.37860
44.05000,-7.34185,-2.37778
44.10000,-7.34998,-2.38015
44.15000,-7.35865,-2.37937
44.20000,-7.36705,-2.38341
44.25000,-7.37518,-2.38071
44.30000,-7.38372,-2.38559
44.35000,-7.39212,-2.38315
44.40000,-7.40025,-2.38891
44.45000,-7.40865,-2.38321
44.50000,-7.41718,-2.39069
44.55000,-7.42532,-2.38725
44.60000,-7.43358,-2.39136
44.65000,-7.44198,-2.38953
44.70000,-7.45038,-2.39319
44.75000,-7.45851,-2.39224
44.80000,-7.46692,-2.39469
44.85000,-7.47518,-2.39241
44.90000,-7.48358,-2.39796
44.95000,-7.49185,-2.39437
45.00000,-7.50025,-2.39865
45.05000,-7.50878,-2.39685
45.10000,-7.51705,-2.40058
45.15000,-7.52518,-2.39942
45.20000,-7.53372,-2.40117
45.25000,-7.54211,-2.40194
45.30000,-7.55038,-2.40366
45.35000,-7.55851,-2.40507
45.40000,-7.56718,-2.40475
45.45000,-7.57531,-2.40842
45.50000,-7.58345,-2.40633
45.55000,-7.59198,-2.41013
45.60000,-7.60038,-2.40910
45.65000,-7.60838,-2.41120
45.70000,-7.61678,-2.41099
45.75000,-7.62531,-2.41395
45.80000,-7.63358,-2.41348
45.85000,-7.64171,-2.41520
45.90000,-7.65025,-2.41637
45.95000,-7.65838,-2.41707
46.00000,-7.66665,-2.41815
46.05000,-7.67505,-2.42001
46.10000,-7.68358,-2.42097
46.15000,-7.69198,-2.42236
46.20000,-7.70025,-2.42406
46.25000,-7.70838,-2.42454
46.30000,-7.71691,-2.42529
46.35000,-7.72518,-2.42727
46.40000,-7.73331,-2.42720
46.45000,-7.74185,-2.42879
46.50000,-7.75025,-2.43019
46.55000,-7.75838,-2.43150
46.60000,-7.76691,-2.43111
46.65000,-7.77558,-2.43357
46.70000,-7.78358,-2.43475
46.75000,-7.79198,-2.43539
46.80000,-7.80051,-2.43575
46.85000,-7.80878,-2.43696
46.90000,-7.81705,-2.43845
46.95000,-7.82545,-2.43912
47.00000,-7.83371,-2.44022
47.05000,-7.84198,-2.43937
47.10000,-7.85025,-2.44183
47.15000,-7.85851,-2.44268
47.20000,-7.86705,-2.44237
47.25000,-7.87531,-2.44267
47.30000,-7.88345,-2.44791
47.35000,-7.89198,-2.44329
47.40000,-7.90038,-2.45034
47.45000,-7.90851,-2.44716
47.50000,-7.91705,-2.45172
47.55000,-7.92545,-2.44933
47.60000,-7.93358,-2.45429
47.65000,-7.94185,-2.45074
47.70000,-7.95038,-2.45569
47.75000,-7.95865,-2.45284
47.80000,-7.96678,-2.45761
47.85000,-7.97518,-2.45573
47.90000,-7.98358,-2.45869
47.95000,-7.99185,-2.45946
48.00000,-8.00011,-2.45977
48.05000,-8.00851,-2.46222
48.10000,-8.01678,-2.46241
48.15000,-8.02505,-2.46408
48.20000,-8.03345,-2.46619
48.25000,-8.04198,-2.46701
48.30000,-8.05038,-2.46833
48.35000,-8.05851,-2.47031
48.40000,-8.06691,-2.46883
48.45000,-8.07531,-2.47234
48.50000,-8.08358,-2.47511
48.55000,-8.09185,-2.47277
48.60000,-8.10038,-2.47709
48.65000,-8.10878,-2.47755
48.70000,-8.11678,-2.48112
48.75000,-8.12518,-2.47766
48.80000,-8.13371,-2.48318
48.85000,-8.14171,-2.48253
48.90000,-8.15011,-2.48600
48.95000,-8.15865,-2.48696
49.00000,-8.16691,-2.48829
49.05000,-8.17518,-2.49028
49.10000,-8.18371,-2.49319
49.15000,-8.19211,-2.49190
49.20000,-8.20038,-2.49632
49.25000,-8.20878,-2.49726
49.30000,-8.21718,-2.49671
49.35000,-8.22545,-2.50023
49.40000,-8.23371,-2.50000
49.45000,-8.24185,-2.50264
49.50000,-8.25038,-2.50195
49.55000,-8.25865,-2.50408
49.60000,-8.26678,-2.50642
49.65000,-8.27531,-2.50773
49.70000,-8.28371,-2.50847
49.75000,-8.29171,-2.50912
49.80000,-8.30025,-2.51307
49.85000,-8.30891,-2.51315
49.90000,-8.31691,-2.51545
49.95000,-8.32531,-2.51424
50.00000,-8.33385,-2.51936
50.05000,-8.34198,-2.51586
50.10000,-8.35038,-2.51948
50.15000,-8.35865,-2.52246
50.20000,-8.36705,-2.52210
50.25000,-8.37518,-2.52011
50.30000,-8.38345,-2.52576
50.35000,-8.39171,-2.52380
50.40000,-8.40025,-2.52851
50.45000,-8.40851,-2.52474
50.50000,-8.41665,-2.53115
50.55000,-8.42531,-2.52956
50.60000,-8.43371,-2.53338
50.65000,-8.44185,-2.53056
50.70000,-8.45025,-2.53805
50.75000,-8.45878,-2.53284
50.80000,-8.46691,-2.53877
50.85000,-8.47518,-2.53641
50.90000,-8.48371,-2.54044
50.95000,-8.49198,-2.54158
51.00000,-8.50011,-2.54222
51.05000,-8.50851,-2.54245
51.10000,-8.51691,-2.54462
51.15000,-8.52505,-2.54431
51.20000,-8.53345,-2.54765
51.25000,-8.54185,-2.54708
51.30000,-8.55011,-2.54911
51.35000,-8.55838,-2.55256
51.40000,-8.56678,-2.54795
51.45000,-8.57531,-2.55930
51.50000,-8.58358,-2.55062
51.55000,-8.59185,-2.56049
51.60000,-8.60025,-2.55552
51.65000,-8.60865,-2.56263
51.70000,-8.61705,-2.56092
51.75000,-8.62531,-2.56445
51.80000,-8.63371,-2.56489
51.85000,-8.64198,-2.56330
51.90000,-8.65011,-2.57320
51.95000,-8.65851,-2.56109
52.00000,-8.66691,-2.57366
52.05000,-8.67505,-2.56744
52.10000,-8.68331,-2.57479
52.15000,-8.69198,-2.57054
52.20000,-8.70025,-2.57841
52.25000,-8.70851,-2.57363
52.30000,-8.71705,-2.58409
52.35000,-8.72545,-2.57766
52.40000,-8.73371,-2.58774
52.45000,-8.74198,-2.58092
52.50000,-8.75038,-2.59110
52.55000,-8.75878,-2.58543
52.60000,-8.76705,-2.59182
52.65000,-8.77531,-2.59334
52.70000,-8.78385,-2.59165
52.75000,-8.79198,-2.59593
52.80000,-8.80011,-2.59769
52.85000,-8.80865,-2.59908
52.90000,-8.81691,-2.60191
52.95000,-8.82505,-2.60258
53.00000,-8.83358,-2.60609
53.05000,-8.84225,-2.60848
53.10000,-8.85038,-2.60993
53.15000,-8.85865,-2.61274
53.20000,-8.86731,-2.61560
53.25000,-8.87545,-2.61641
53.30000,-8.88358,-2.62076
53.35000,-8.89211,-2.61858
53.40000,-8.90038,-2.62723
53.45000,-8.90851,-2.62328
53.50000,-8.91691,-2.62878
53.55000,-8.92518,-2.62689
53.60000,-8.93371,-2.63544
53.65000,-8.94185,-2.63110
53.70000,-8.94998,-2.63730
53.75000,-8.95865,-2.63741
53.80000,-8.96704,-2.64044
53.85000,-8.97518,-2.64115
53.90000,-8.98358,-2.64440
53.95000,-8.99211,-2.64631
54.00000,-9.00024,-2.65002
54.05000,-9.00851,-2.64974
54.10000,-9.01718,-2.65251
54.15000,-9.02545,-2.65719
54.20000,-9.03344,-2.65646
54.25000,-9.04171,-2.66058
54.30000,-9.05011,-2.65981
54.35000,-9.05838,-2.66455
54.40000,-9.06678,-2.66405
54.45000,-9.07518,-2.66826
54.50000,-9.08344,-2.66916
54.55000,-9.09171,-2.67212
54.60000,-9.09998,-2.67441
54.65000,-9.10864,-2.67471
54.70000,-9.11704,-2.67742
54.75000,-9.12531,-2.68129
54.80000,-9.13358,-2.68079
54.85000,-9.14211,-2.68479
54.90000,-9.15038,-2.68317
54.95000,-9.15851,-2.69261
55.00000,-9.16718,-2.68378
55.05000,-9.17544,-2.69670
55.10000,-9.18344,-2.68986
55.15000,-9.19184,-2.69867
55.20000,-9.20038,-2.69428
55.25000,-9.20851,-2.70283
55.30000,-9.21678,-2.69916
55.35000,-9.22531,-2.70690
55.40000,-9.23358,-2.70133
55.45000,-9.24184,-2.71101
55.50000,-9.25038,-2.70362
55.55000,-9.25891,-2.71719
55.60000,-9.26704,-2.70898
55.65000,-9.27531,-2.71772
55.70000,-9.28384,-2.71593
55.75000,-9.29224,-2.72133
55.80000,-9.30051,-2.71989
55.85000,-9.30851,-2.72366
55.90000,-9.31704,-2.72383
55.95000,-9.32531,-2.72817
56.00000,-9.33344,-2.72536
56.05000,-9.34198,-2.73087
56.10000,-9.35038,-2.73087
56.15000,-9.35838,-2.73298
56.20000,-9.36691,-2.73361
56.25000,-9.37558,-2.73770
56.30000,-9.38371,-2.73792
56.35000,-9.39184,-2.74006
56.40000,-9.40038,-2.74129
56.45000,-9.40878,-2.74422
56.50000,-9.41704,-2.74578
56.55000,-9.42531,-2.74642
56.60000,-9.43371,-2.74956
56.65000,-9.44211,-2.74928
56.70000,-9.45038,-2.75316
56.75000,-9.45864,-2.75192
56.80000,-9.46704,-2.75583
56.85000,-9.47531,-2.75565
56.90000,-9.48331,-2.75996
56.95000,-9.49198,-2.75846
57.00000,-9.50038,-2.76323
57.05000,-9.50851,-2.76357
57.10000,-9.51691,-2.76715
57.15000,-9.52544,-2.76724
57.20000,-9.53358,-2.76742
57.25000,-9.54184,-2.77470
57.30000,-9.55038,-2.77125
57.35000,-9.55864,-2.77425
57.40000,-9.56678,-2.77752
57.45000,-9.57518,-2.77631
57.50000,-9.58358,-2.78022
57.55000,-9.59171,-2.77800
57.60000,-9.59998,-2.78483
57.65000,-9.60851,-2.77898
57.70000,-9.61678,-2.78667
57.75000,-9.62504,-2.78130
57.80000,-9.63344,-2.79016
57.85000,-9.64198,-2.78181
57.90000,-9.65038,-2.79271
57.95000,-9.65851,-2.78712
58.00000,-9.66691,-2.79203
58.05000,-9.67544,-2.79106
58.10000,-9.68371,-2.79492
58.15000,-9.69184,-2.79487
58.20000,-9.70038,-2.79360
58.25000,-9.70864,-2.80296
58.30000,-9.71678,-2.79087
58.35000,-9.72518,-2.80578
58.40000,-9.73358,-2.79598
58.45000,-9.74184,-2.80735
58.50000,-9.75024,-2.79712
58.55000,-9.75878,-2.81203
58.60000,-9.76691,-2.79775
58.65000,-9.77518,-2.81773
58.70000,-9.78384,-2.79504
58.75000,-9.79211,-2.82543
58.80000,-9.80038,-2.79667
58.85000,-9.80878,-2.82498
58.90000,-9.81718,-2.80281
58.95000,-9.82544,-2.82371
59.00000,-9.83371,-2.80828
59.05000,-9.84171,-2.82178
59.10000,-9.85024,-2.81224
59.15000,-9.85851,-2.82285
59.20000,-9.86664,-2.81581
59.25000,-9.87518,-2.82546
59.30000,-9.88358,-2.81755
59.35000,-9.89158,-2.82724
59.40000,-9.90011,-2.82138
59.45000,-9.90878,-2.82871
59.50000,-9.91691,-2.82805
59.55000,-9.92518,-2.82825
59.60000,-9.93384,-2.83141
59.65000,-9.94211,-2.83169
59.70000,-9.95038,-2.83066
59.75000,-9.95878,-2.83743
59.80000,-9.96718,-2.83419
59.85000,-9.97531,-2.83632
59.90000,-9.98358,-2.84014
59.95000,-9.99184,-2.83626
60.00000,-10.00038,-2.84567
60.05000,-10.00864,-2.83516
60.10000,-10.01664,-2.85267
60.15000,-10.02531,-2.83566
60.20000,-10.03358,-2.85276
60.25000,-10.04171,-2.84189
60.30000,-10.05024,-2.85290
60.35000,-10.05891,-2.84640
60.40000,-10.06691,-2.85629
60.45000,-10.07518,-2.85021
60.50000,-10.08384,-2.85658
60.55000,-10.09198,-2.85106
60.60000,-10.10024,-2.86374
60.65000,-10.10851,-2.85211
60.70000,-10.11691,-2.86286
60.75000,-10.12504,-2.85895
60.80000,-10.13344,-2.86329
60.85000,-10.14171,-2.86019
60.90000,-10.14998,-2.86643
60.95000,-10.15837,-2.86169
61.00000,-10.16678,-2.86982
61.05000,-10.17531,-2.86620
61.10000,-10.18371,-2.87190
61.15000,-10.19184,-2.87236
61.20000,-10.20024,-2.86950
61.25000,-10.20864,-2.87652
61.30000,-10.21691,-2.87553
61.35000,-10.22517,-2.87679
61.40000,-10.23358,-2.87824
61.45000,-10.24184,-2.87949
61.50000,-10.24998,-2.88166
61.55000,-10.25851,-2.88288
61.60000,-10.26704,-2.88208
61.65000,-10.27517,-2.88869
61.70000,-10.28344,-2.88728
61.75000,-10.29197,-2.88679
61.80000,-10.30037,-2.89391
61.85000,-10.30864,-2.88857
61.90000,-10.31717,-2.89764
61.95000,-10.32544,-2.89266
62.00000,-10.33358,-2.90047
62.05000,-10.34184,-2.89138
62.10000,-10.35024,-2.90642
62.15000,-10.35864,-2.89162
62.20000,-10.36691,-2.90876
62.25000,-10.37491,-2.88957
62.30000,-10.38358,-2.91174
62.35000,-10.39197,-2.89542
62.40000,-10.40011,-2.91262
62.45000,-10.40864,-2.89858
62.50000,-10.41704,-2.91678
62.55000,-10.42517,-2.90244
62.60000,-10.43357,-2.91404
62.65000,-10.44224,-2.90844
62.70000,-10.45024,-2.91620
62.75000,-10.45851,-2.91455
62.80000,-10.46704,-2.91489
62.85000,-10.47544,-2.91962
62.90000,-10.48371,-2.91903
62.95000,-10.49211,-2.92417
63.00000,-10.50037,-2.91969
63.05000,-10.50864,-2.92914
63.10000,-10.51691,-2.92373
63.15000,-10.52504,-2.93557
63.20000,-10.53357,-2.92266
63.25000,-10.54197,-2.94196
63.30000,-10.55011,-2.93197
63.35000,-10.55851,-2.93870
63.40000,-10.56691,-2.94024
63.45000,-10.57517,-2.94407
63.50000,-10.58344,-2.94310
63.55000,-10.59211,-2.94675
63.60000,-10.60024,-2.95033
63.65000,-10.60851,-2.95099
63.70000,-10.61704,-2.95012
63.75000,-10.62531,-2.95802
63.80000,-10.63344,-2.95225
63.85000,-10.64184,-2.95856
63.90000,-10.65024,-2.96090
63.95000,-10.65851,-2.95876
64.00000,-10.66677,-2.96947
64.05000,-10.67517,-2.96471
64.10001,-10.68344,-2.96774
64.15000,-10.69171,-2.97319
64.20000,-10.70011,-2.97260
64.25000,-10.70864,-2.97802
64.30000,-10.71717,-2.97747
64.35001,-10.72531,-2.98393
64.40000,-10.73384,-2.98078
64.45000,-10.74224,-2.98938
64.50000,-10.75037,-2.98405
64.55000,-10.75864,-2.99260
64.60001,-10.76717,-2.98934
64.65000,-10.77544,-2.99396
64.70000,-10.78344,-2.99560
64.75000,-10.79184,-2.99796
64.80000,-10.80024,-2.99770
64.85001,-10.80837,-3.00549
64.90000,-10.81677,-3.00042
64.95000,-10.82531,-3.00872
65.00000,-10.83371,-3.00786
65.05000,-10.84197,-3.01211
65.10001,-10.85037,-3.01188
65.15000,-10.85877,-3.01685
65.20000,-10.86704,-3.01566
65.25000,-10.87544,-3.02210
65.30000,-10.88357,-3.01730
65.35001,-10.89197,-3.02617
65.40000,-10.90024,-3.02239
65.45000,-10.90837,-3.02872
65.50000,-10.91704,-3.02670
65.55000,-10.92531,-3.03393
65.60001,-10.93344,-3.02993
65.65000,-10.94197,-3.03599
65.70001,-10.95024,-3.03312
65.75000,-10.95837,-3.04218
65.80000,-10.96691,-3.03202
65.85001,-10.97557,-3.04709
65.90000,-10.98371,-3.03885
65.95001,-10.99184,-3.04685
66.00000,-11.00051,-3.04404
66.05000,-11.00877,-3.05105
66.10001,-11.01704,-3.04738
66.15000,-11.02531,-3.05110
66.20001,-11.03371,-3.05176
66.25000,-11.04197,-3.05430
66.30000,-11.05024,-3.05286
66.35001,-11.05864,-3.05912
66.40000,-11.06704,-3.05573
66.45001,-11.07544,-3.06185
66.50000,-11.08357,-3.06000
66.55000,-11.09211,-3.06274
66.60001,-11.10037,-3.06457
66.65000,-11.10851,-3.06434
66.70001,-11.11691,-3.06693
66.75000,-11.12544,-3.06722
66.80000,-11.13357,-3.07142
66.85001,-11.14184,-3.07135
66.90000,-11.15051,-3.07153
66.95001,-11.15864,-3.07613
67.00000,-11.16691,-3.07651
67.05000,-11.17531,-3.07740
67.10001,-11.18357,-3.08048
67.15000,-11.19171,-3.08209
67.20001,-11.19997,-3.08332
67.25000,-11.20837,-3.08506
67.30000,-11.21677,-3.08798
67.35001,-11.22517,-3.08860
67.40000,-11.23357,-3.09152
67.45001,-11.24197,-3.09143
67.50000,-11.25037,-3.09064
67.55000,-11.25851,-3.09784
67.60001,-11.26691,-3.09444
67.65000,-11.27531,-3.09991
67.70001,-11.28357,-3.09938
67.75000,-11.29184,-3.10504
67.80000,-11.30037,-3.10080
67.85001,-11.30851,-3.10968
67.90000,-11.31677,-3.10530
67.95001,-11.32531,-3.11486
68.00000,-11.33371,-3.10908
68.05000,-11.34171,-3.11740
68.10001,-11.34997,-3.11303
68.15000,-11.35877,-3.12014
68.20001,-11.36691,-3.11796
68.25000,-11.37531,-3.12311
68.30000,-11.38384,-3.12360
68.35001,-11.39224,-3.12592
68.40000,-11.40051,-3.12807
68.45001,-11.40877,-3.12974
68.50000,-11.41704,-3.13054
68.55000,-11.42544,-3.13405
68.60001,-11.43371,-3.13339
68.65000,-11.44184,-3.13659
68.70001,-11.45037,-3.13826
68.75000,-11.45864,-3.14064
68.80000,-11.46677,-3.14078
68.85001,-11.47531,-3.14425
68.90000,-11.48357,-3.14421
68.95001,-11.49171,-3.14802
69.00000,-11.50024,-3.14690
69.05000,-11.50891,-3.15546
69.10001,-11.51691,-3.14856
69.15000,-11.52517,-3.16108
69.20001,-11.53384,-3.14824
69.25000,-11.54197,-3.16667
69.30000,-11.55037,-3.15480
69.35001,-11.55877,-3.16621
69.40000,-11.56704,-3.16056
69.45001,-11.57530,-3.16927
69.50000,-11.58357,-3.16457
69.55000,-11.59197,-3.17156
69.60001,-11.60050,-3.16728
69.65000,-11.60864,-3.17760
69.70001,-11.61677,-3.16994
69.75000,-11.62530,-3.17680
69.80000,-11.63357,-3.17639
69.85001,-11.64171,-3.18082
69.90000,-11.65024,-3.18021
69.95001,-11.65877,-3.18065
70.00000,-11.66691,-3.18805
70.05000,-11.67517,-3.18211
70.10001,-11.68371,-3.19245
70.15000,-11.69197,-3.18434
70.20001,-11.70010,-3.19493
70.25000,-11.70850,-3.19085
70.30000,-11.71691,-3.19454
70.35001,-11.72504,-3.19704
70.40000,-11.73344,-3.19637
70.45001,-11.74184,-3.19987
70.50000,-11.75010,-3.20132
70.55000,-11.75837,-3.20045
70.60001,-11.76677,-3.20666
70.65000,-11.77530,-3.20391
70.70001,-11.78357,-3.21062
70.75000,-11.79184,-3.21001
70.80000,-11.80024,-3.20933
70.85001,-11.80877,-3.21637
70.90000,-11.81704,-3.21587
70.95001,-11.82517,-3.21846
71.00000,-11.83370,-3.21542
71.05000,-11.84197,-3.22559
71.10001,-11.85010,-3.21847
71.15000,-11.85864,-3.22512
71.20001,-11.86690,-3.22258
71.25000,-11.87504,-3.23147
71.30000,-11.88330,-3.22409
71.35001,-11.89197,-3.23289
71.40000,-11.90037,-3.23031
71.45001,-11.90850,-3.23507
71.50000,-11.91717,-3.23451
71.55000,-11.92544,-3.23758
71.60001,-11.93370,-3.23799
71.65000,-11.94210,-3.23970
71.70001,-11.95037,-3.24151
71.75000,-11.95864,-3.24182
71.80000,-11.96704,-3.24540
71.85001,-11.97517,-3.24606
71.90000,-11.98384,-3.24849
71.95001,-11.99210,-3.25035
72.00000,-12.00010,-3.25193
72.05000,-12.00864,-3.25179
72.10001,-12.01690,-3.25591
72.15000,-12.02517,-3.25498
72.20001,-12.03370,-3.25990
72.25000,-12.04210,-3.25862
72.30000,-12.05024,-3.26402
72.35001,-12.05850,-3.26120
72.40000,-12.06717,-3.26811
72.45001,-12.07530,-3.26522
72.50000,-12.08357,-3.27123
72.55000,-12.09197,-3.26966
72.60001,-12.10037,-3.27519
72.65000,-12.10864,-3.27156
72.70001,-12.11690,-3.28213
72.75000,-12.12530,-3.27217
72.80000,-12.13357,-3.28276
72.85001,-12.14184,-3.28008
72.90000,-12.14997,-3.28422
72.95001,-12.15850,-3.28154
73.00000,-12.16690,-3.28983
73.05000,-12.17504,-3.28689
73.10001,-12.18357,-3.29186
73.15000,-12.19210,-3.29020
73.20001,-12.20024,-3.29766
73.25000,-12.20850,-3.29292
73.30000,-12.21704,-3.30245
73.35001,-12.22530,-3.29617
73.40000,-12.23357,-3.30359
73.45001,-12.24184,-3.30272
73.50000,-12.25024,-3.30439
73.55000,-12.25837,-3.30472
73.60001,-12.26677,-3.30635
73.65000,-12.27517,-3.30760
73.70001,-12.28330,-3.30861
73.75000,-12.29170,-3.31007
73.80000,-12.30010,-3.31283
73.85001,-12.30850,-3.31242
73.90000,-12.31690,-3.31670
73.95001,-12.32517,-3.31486
74.00000,-12.33357,-3.32035
74.05000,-12.34197,-3.31776
74.10001,-12.35024,-3.32176
74.15000,-12.35837,-3.32178
74.20001,-12.36690,-3.32263
74.25000,-12.37530,-3.32585
74.30000,-12.38357,-3.32334
74.35001,-12.39197,-3.32693
74.40000,-12.40037,-3.32803
74.45001,-12.40837,-3.32783
74.50000,-12.41677,-3.32719
74.55000,-12.42544,-3.33317
74.60001,-12.43370,-3.33188
74.65000,-12.44184,-3.33331
74.70001,-12.45037,-3.33489
74.75000,-12.45864,-3.33416
74.80000,-12.46704,-3.33785
74.85001,-12.47544,-3.33538
74.90000,-12.48384,-3.34073
74.95001,-12.49210,-3.33860
75.00000,-12.50037,-3.34207
75.05000,-12.50850,-3.33705
75.10001,-12.51704,-3.34485
75.15000,-12.52530,-3.33958
75.20001,-12.53330,-3.34351
75.25000,-12.54197,-3.34092
75.30000,-12.55037,-3.34479
75.35001,-12.55850,-3.34281
75.40000,-12.56690,-3.34469
75.45001,-12.57544,-3.34471
75.50000,-12.58357,-3.34728
75.55000,-12.59197,-3.34718
75.60001,-12.60050,-3.34582
75.65000,-12.60877,-3.35077
75.70001,-12.61704,-3.34832
75.75000,-12.62544,-3.35014
75.80000,-12.63370,-3.35242
75.85001,-12.64197,-3.35012
75.90000,-12.65024,-3.35612
75.95001,-12.65864,-3.35238
76.00000,-12.66690,-3.35684
76.05000,-12.67530,-3.35479
76.10001,-12.68344,-3.35854
76.15000,-12.69197,-3.35558
76.20001,-12.70024,-3.36102
76.25000,-12.70837,-3.35874
76.30000,-12.71690,-3.36215
76.35001,-12.72544,-3.36055
76.40000,-12.73357,-3.36657
76.45001,-12.74184,-3.36219
76.50000,-12.75050,-3.36956
76.55000,-12.75864,-3.36684
76.60001,-12.76677,-3.37452
76.65000,-12.77517,-3.36862
76.70001,-12.78357,-3.37913
76.75000,-12.79184,-3.37555
76.80000,-12.80010,-3.37988
76.85001,-12.80850,-3.38262
76.90000,-12.81677,-3.38525
76.95001,-12.82504,-3.38651
77.00000,-12.83344,-3.39289
77.05000,-12.84197,-3.39244
77.10001,-12.85024,-3.39835
77.15000,-12.85850,-3.39865
77.20001,-12.86690,-3.40290
77.25000,-12.87530,-3.40320
77.30000,-12.88370,-3.40930
77.35001,-12.89184,-3.40816
77.40000,-12.90037,-3.41318
77.45001,-12.90863,-3.41456
77.50000,-12.91677,-3.41824
77.55000,-12.92517,-3.41883
77.60001,-12.93357,-3.42397
77.65000,-12.94170,-3.42379
77.70001,-12.95010,-3.42860
77.75000,-12.95863,-3.42910
77.80000,-12.96677,-3.43382
77.85001,-12.97504,-3.43438
77.90000,-12.98370,-3.43861
77.95001,-12.99210,-3.44290
78.00000,-13.00037,-3.44486
78.05000,-13.00877,-3.44556
78.10001,-13.01704,-3.45072
78.15000,-13.02543,-3.45117
78.20001,-13.03384,-3.45461
78.25000,-13.04197,-3.45635
78.30000,-13.05063,-3.46160
78.35001,-13.05890,-3.46567
78.40000,-13.06690,-3.46159
78.45001,-13.07543,-3.47368
78.50000,-13.08370,-3.46374
78.55000,-13.09183,-3.48159
78.60001,-13.10037,-3.46897
78.65000,-13.10890,-3.48709
78.70001,-13.11703,-3.47688
78.75000,-13.12530,-3.49289
78.80000,-13.13397,-3.48382
78.85001,-13.14210,-3.49864
78.90000,-13.15037,-3.49224
78.95001,-13.15890,-3.50471
79.00000,-13.16717,-3.49904
79.05000,-13.17543,-3.50900
79.10001,-13.18370,-3.50568
79.15000,-13.19197,-3.51511
79.20001,-13.20023,-3.51254
79.25000,-13.20850,-3.52035
79.30000,-13.21677,-3.51993
79.35001,-13.22530,-3.52571
79.40000,-13.23370,-3.52717
79.45001,-13.24183,-3.53322
79.50000,-13.25037,-3.53333
79.55000,-13.25890,-3.53803
79.60001,-13.26690,-3.53941
79.65000,-13.27517,-3.54355
79.70001,-13.28370,-3.54457
79.75000,-13.29183,-3.54915
79.80000,-13.30010,-3.55166
79.85001,-13.30850,-3.55329
79.90000,-13.31677,-3.55891
79.95001,-13.32503,-3.55942
80.00000,-13.33330,-3.56496
80.05000,-13.34170,-3.56480
80.10001,-13.34997,-3.57117
80.15000,-13.35823,-3.57026
80.20001,-13.36677,-3.57744
80.25000,-13.37517,-3.57905
80.30000,-13.38357,-3.58252
80.35001,-13.39170,-3.58569
80.40000,-13.40023,-3.58959
80.45001,-13.40877,-3.59068
80.50001,-13.41690,-3.59627
80.55000,-13.42517,-3.59590
80.60001,-13.43383,-3.60230
80.65000,-13.44197,-3.60323
80.70001,-13.45010,-3.60652
80.75001,-13.45850,-3.61000
80.80000,-13.46690,-3.61365
80.85001,-13.47503,-3.61682
80.90000,-13.48343,-3.61923
80.95001,-13.49210,-3.62525
81.00001,-13.50037,-3.62718
81.05000,-13.50863,-3.63291
81.10001,-13.51717,-3.63420
81.15000,-13.52543,-3.64123
81.20001,-13.53370,-3.64091
81.25001,-13.54223,-3.64903
81.30000,-13.55050,-3.64912
81.35001,-13.55877,-3.65599
81.40000,-13.56717,-3.65644
81.45001,-13.57530,-3.66266
81.50001,-13.58383,-3.66334
81.55000,-13.59210,-3.66928
81.60001,-13.60010,-3.67058
81.65000,-13.60863,-3.67455
81.70001,-13.61690,-3.67681
81.75001,-13.62503,-3.68080
81.80000,-13.63357,-3.68303
81.85001,-13.64210,-3.68738
81.90000,-13.65023,-3.68979
81.95001,-13.65863,-3.69165
82.00001,-13.66717,-3.69524
82.05000,-13.67530,-3.69896
82.10001,-13.68357,-3.70066
82.15000,-13.69197,-3.70435
82.20001,-13.70037,-3.70675
82.25001,-13.70850,-3.70941
82.30000,-13.71690,-3.71236
82.35001,-13.72530,-3.71539
82.40000,-13.73357,-3.71731
82.45001,-13.74183,-3.71953
82.50001,-13.75010,-3.72078
82.55000,-13.75863,-3.72408
82.60001,-13.76690,-3.72611
82.65000,-13.77503,-3.73003
82.70001,-13.78357,-3.73070
82.75001,-13.79210,-3.73572
82.80000,-13.80023,-3.73749
82.85001,-13.80863,-3.73944
82.90000,-13.81717,-3.74124
82.95001,-13.82530,-3.74538
83.00001,-13.83343,-3.74441
83.05000,-13.84183,-3.74773
83.10001,-13.85023,-3.74962
83.15000,-13.85837,-3.75141
83.20001,-13.86663,-3.75318
83.25001,-13.87517,-3.75551
83.30000,-13.88343,-3.75746
83.35001,-13.89183,-3.75884
83.40000,-13.90023,-3.49753
83.45001,-13.90863,-3.38418
83.50001,-13.91690,-3.44569
83.55000,-13.92530,-3.48039
83.60001,-13.93357,-3.50371
83.65000,-13.94210,-3.52846
83.70001,-13.95023,-3.54773
83.75001,-13.95850,-3.56574
83.80000,-13.96703,-3.58126
83.85001,-13.97530,-3.59753
83.90000,-13.98357,-3.60975
83.95001,-13.99197,-3.62202
84.00001,-14.00023,-3.63376
84.05000,-14.00837,-3.64316
84.10001,-14.01663,-3.65035
84.15000,-14.02543,-3.65784
84.20001,-14.03370,-3.66409
84.25001,-14.04183,-3.66779
84.30000,-14.05050,-3.67371
84.35001,-14.05877,-3.68116
84.40000,-14.06703,-3.68682
84.45001,-14.07543,-3.69502
84.50001,-14.08383,-3.70095
84.55000,-14.09210,-3.70670
84.60001,-14.10037,-3.71327
84.65000,-14.10850,-3.71641
84.70001,-14.11703,-3.72041
84.75001,-14.12530,-3.69204
84.80000,-14.13343,-3.69133
84.85001,-14.14197,-3.69854
84.90000,-14.15010,-3.70725
84.95001,-14.15837,-3.71213
85.00001,-14.16690,-3.72034
85.05000,-14.17556,-3.72661
85.10001,-14.18370,-3.73313
85.15000,-14.19197,-3.73722
85.20001,-14.20050,-3.74408
85.25001,-14.20877,-3.74896
85.30000,-14.21703,-3.75359
85.35001,-14.22543,-3.75806
85.40000,-14.23370,-3.76304
85.45001,-14.24197,-3.76616
85.50001,-14.25023,-3.76990
85.55000,-14.25850,-3.77318
85.60001,-14.26690,-3.77797
85.65000,-14.27517,-3.78196
85.70001,-14.28330,-3.78546
85.75001,-14.29197,-3.79038
85.80000,-14.30023,-3.79577
85.85001,-14.30837,-3.80044
85.90000,-14.31676,-3.80347
85.95001,-14.32543,-3.80935
86.00001,-14.33356,-3.81361
86.05000,-14.34183,-3.81588
86.10001,-14.35036,-3.82038
86.15000,-14.35863,-3.82522
86.20001,-14.36676,-3.82858
86.25001,-14.37530,-3.83071
86.30000,-14.38370,-3.83640
86.35001,-14.39183,-3.83957
86.40000,-14.40010,-3.84369
86.45001,-14.40850,-3.84564
86.50001,-14.41676,-3.85078
86.55000,-14.42517,-3.85454
86.60001,-14.43343,-3.85905
86.65000,-14.44197,-3.86066
86.70001,-14.45036,-3.86724
86.75001,-14.45863,-3.86966
86.80000,-14.46690,-3.87348
86.85001,-14.47530,-3.87595
86.90000,-14.48356,-3.88270
86.95001,-14.49183,-3.88378
87.00001,-14.50036,-3.88893
87.05000,-14.50863,-3.89326
87.10001,-14.51676,-3.89682
87.15000,-14.52516,-3.89897
87.20001,-14.53370,-3.90429
87.25001,-14.54183,-3.90830
87.30000,-14.55010,-3.91068
87.35001,-14.55876,-3.91573
87.40000,-14.56690,-3.91921
87.45001,-14.57516,-3.92383
87.50001,-14.58383,-3.92736
87.55000,-14.59210,-3.93155
87.60001,-14.60036,-3.93539
87.65000,-14.60876,-3.94002
87.70001,-14.61703,-3.94297
87.75001,-14.62543,-3.94721
87.80000,-14.63370,-3.95181
87.85001,-14.64183,-3.95457
87.90000,-14.65050,-3.95853
87.95001,-14.65863,-3.96319
88.00001,-14.66676,-3.96489
88.05000,-14.67530,-3.96901
88.10001,-14.68356,-3.97262
88.15000,-14.69183,-3.97653
88.20001,-14.70023,-3.97925
88.25001,-14.70890,-3.98473
88.30000,-14.71690,-3.98729
88.35001,-14.72516,-3.99033
88.40000,-14.73383,-3.99301
88.45001,-14.74210,-3.99805
88.50001,-14.75036,-4.00027
88.55000,-14.75863,-4.00513
88.60001,-14.76716,-4.00825
88.65000,-14.77530,-4.01233
88.70001,-14.78356,-4.01571
88.75001,-14.79183,-4.01935
88.80000,-14.80036,-4.02282
88.85001,-14.80850,-4.02703
88.90000,-14.81676,-4.02953
88.95001,-14.82530,-4.03390
89.00001,-14.83370,-4.03888
89.05000,-14.84183,-4.04225
89.10001,-14.85023,-4.04566
89.15000,-14.85876,-4.04950
89.20001,-14.86690,-4.05557
89.25001,-14.87516,-4.05809
89.30000,-14.88383,-4.06303
89.35001,-14.89210,-4.06747
89.40000,-14.90023,-4.07253
89.45001,-14.90850,-4.07391
89.50001,-14.91690,-4.08076
89.55000,-14.92516,-4.08244
89.60001,-14.93343,-4.08895
89.65000,-14.94183,-4.09209
89.70001,-14.94996,-4.09750
89.75001,-14.95836,-4.10136
89.80000,-14.96676,-4.10741
89.85001,-14.97530,-4.11177
89.90000,-14.98383,-4.11786
89.95001,-14.99183,-4.12181
90.00001,-15.00023,-4.12512
90.05000,-15.00876,-4.12907
90.10001,-15.01690,-4.13635
90.15000,-15.02503,-4.13985
90.20001,-15.03370,-4.14411
90.25001,-15.04210,-4.15244
90.30000,-15.05010,-4.15641
90.34400,-15.05756,-4.16141
