Time,Extension,Load
(sec),(mm),(N)
0.00000,0.00000,0.00506
0.05000,-0.00133,-0.00504
0.10000,-0.00613,0.00443
0.15000,-0.01507,-0.00634
0.20000,-0.02533,0.00321
0.25000,-0.03587,-0.00462
0.30000,-0.04560,-0.00031
0.35000,-0.05507,-0.00632
0.40000,-0.06440,-0.00054
0.45000,-0.07320,-0.00682
0.50000,-0.08200,-0.00105
0.55000,-0.09053,-0.00799
0.60000,-0.09920,-0.00421
0.65000,-0.10760,-0.00801
0.70000,-0.11600,-0.00460
0.75000,-0.12453,-0.00859
0.80000,-0.13307,-0.00821
0.85000,-0.14120,-0.01186
0.90000,-0.14973,-0.01097
0.95000,-0.15827,-0.01373
1.00000,-0.16640,-0.01496
1.05000,-0.17467,-0.01804
1.10000,-0.18347,-0.01805
1.15000,-0.19160,-0.02159
1.20000,-0.19987,-0.02223
1.25000,-0.20840,-0.02582
1.30000,-0.21667,-0.02652
1.35000,-0.22480,-0.02780
1.40000,-0.23320,-0.02858
1.45000,-0.24160,-0.03464
1.50000,-0.25000,-0.03405
1.55000,-0.25827,-0.03794
1.60000,-0.26667,-0.03482
1.65000,-0.27493,-0.04217
1.70000,-0.28333,-0.04159
1.75000,-0.29147,-0.04253
1.80000,-0.30000,-0.04575
1.85000,-0.30840,-0.04666
1.90000,-0.31653,-0.05075
1.95000,-0.32480,-0.05080
2.00000,-0.33347,-0.05493
2.05000,-0.34173,-0.05504
2.10000,-0.34987,-0.05907
2.15000,-0.35827,-0.06242
2.20000,-0.36680,-0.06503
2.25000,-0.37493,-0.06372
2.30000,-0.38333,-0.06836
2.35000,-0.39173,-0.06903
2.40000,-0.39987,-0.07469
2.45000,-0.40813,-0.07468
2.50000,-0.41653,-0.07773
2.55000,-0.42480,-0.08130
2.60000,-0.43307,-0.08421
2.65000,-0.44147,-0.08738
2.70000,-0.44987,-0.08987
2.75000,-0.45840,-0.09482
2.80000,-0.46667,-0.09459
2.85000,-0.47493,-0.10246
2.90000,-0.48347,-0.10159
2.95000,-0.49173,-0.10710
3.00000,-0.49987,-0.10841
3.05000,-0.50827,-0.11488
3.10000,-0.51667,-0.11761
3.15000,-0.52480,-0.12160
3.20000,-0.53307,-0.12661
3.25000,-0.54173,-0.12902
3.30000,-0.54973,-0.13477
3.35000,-0.55800,-0.13874
3.40000,-0.56653,-0.14245
3.45000,-0.57480,-0.14789
3.50000,-0.58307,-0.15110
3.55000,-0.59160,-0.15809
3.60000,-0.60000,-0.16097
3.65000,-0.60827,-0.16666
3.70000,-0.61653,-0.17085
3.75000,-0.62493,-0.17591
3.80000,-0.63347,-0.18066
3.85000,-0.64173,-0.18654
3.90000,-0.64987,-0.18895
3.95000,-0.65827,-0.19636
4.00000,-0.66653,-0.20008
4.05000,-0.67467,-0.20486
4.10000,-0.68306,-0.21005
4.15000,-0.69160,-0.21634
4.20000,-0.69973,-0.21862
4.25000,-0.70813,-0.22790
4.30000,-0.71680,-0.23092
4.35000,-0.72493,-0.23813
4.40000,-0.73320,-0.24137
4.45000,-0.74173,-0.25121
4.50000,-0.75013,-0.25352
4.55000,-0.75826,-0.26251
4.60000,-0.76653,-0.26660
4.65000,-0.77506,-0.27464
4.70000,-0.78320,-0.27903
4.75000,-0.79146,-0.28692
4.80000,-0.79986,-0.29045
4.85000,-0.80826,-0.30098
4.90000,-0.81666,-0.30197
4.95000,-0.82480,-0.31380
5.00000,-0.83320,-0.31601
5.05000,-0.84173,-0.32518
5.10000,-0.85000,-0.32910
5.15000,-0.85813,-0.33753
5.20000,-0.86680,-0.34457
5.25000,-0.87506,-0.34963
5.30000,-0.88320,-0.35716
5.35000,-0.89173,-0.36275
5.40000,-0.90013,-0.37037
5.45000,-0.90813,-0.37600
5.50000,-0.91653,-0.38427
5.55000,-0.92493,-0.38991
5.60000,-0.93306,-0.39642
5.65000,-0.94133,-0.40443
5.70000,-0.94986,-0.41126
5.75000,-0.95800,-0.41840
5.80000,-0.96640,-0.42426
5.85000,-0.97480,-0.43331
5.90000,-0.98320,-0.44029
5.95000,-0.99160,-0.44708
6.00000,-0.99986,-0.45587
6.05000,-1.00813,-0.46078
6.10000,-1.01680,-0.47268
6.15000,-1.02506,-0.47556
6.20000,-1.03320,-0.48772
6.25000,-1.04160,-0.49097
6.30000,-1.05000,-0.50215
6.35000,-1.05813,-0.50723
6.40000,-1.06640,-0.51681
6.45000,-1.07506,-0.52256
6.50000,-1.08306,-0.53305
6.55000,-1.09133,-0.53713
6.60000,-1.09986,-0.54876
6.65000,-1.10813,-0.55305
6.70000,-1.11653,-0.56474
6.75000,-1.12493,-0.56900
6.80000,-1.13333,-0.58015
6.85000,-1.14160,-0.58610
6.90000,-1.15000,-0.59464
6.95000,-1.15826,-0.60252
7.00000,-1.16666,-0.60982
7.05000,-1.17506,-0.61825
7.10000,-1.18320,-0.62593
7.15000,-1.19160,-0.63330
7.20000,-1.20000,-0.64201
7.25000,-1.20813,-0.64937
7.30000,-1.21653,-0.65712
7.35000,-1.22493,-0.66570
7.40000,-1.23320,-0.67320
7.45000,-1.24146,-0.68130
7.50000,-1.25013,-0.68900
7.55000,-1.25826,-0.69861
7.60000,-1.26640,-0.70282
7.65000,-1.27493,-0.71579
7.70000,-1.28333,-0.71818
7.75000,-1.29146,-0.72987
7.80000,-1.29986,-0.73456
7.85000,-1.30840,-0.74589
7.90000,-1.31666,-0.75125
7.95000,-1.32493,-0.76066
8.00000,-1.33320,-0.76379
8.05000,-1.34160,-0.77478
8.10000,-1.34986,-0.77861
8.15000,-1.35813,-0.79003
8.20000,-1.36640,-0.79323
8.25000,-1.37493,-0.80505
8.30000,-1.38320,-0.80850
8.35000,-1.39146,-0.81926
8.40000,-1.40013,-0.82352
8.45000,-1.40840,-0.83492
8.50000,-1.41653,-0.83932
8.55000,-1.42493,-0.84892
8.60000,-1.43346,-0.85514
8.65000,-1.44146,-0.86409
8.70000,-1.44973,-0.86897
8.75000,-1.45840,-0.87879
8.80000,-1.46653,-0.88564
8.85000,-1.47480,-0.89494
8.90000,-1.48320,-0.90078
8.95000,-1.49133,-0.90963
9.00000,-1.49973,-0.91820
9.05000,-1.50813,-0.92752
9.10000,-1.51653,-0.93602
9.15000,-1.52493,-0.94511
9.20000,-1.53333,-0.95350
9.25000,-1.54146,-0.96224
9.30000,-1.55013,-0.97102
9.35000,-1.55840,-0.97945
9.40000,-1.56653,-0.98800
9.45000,-1.57493,-0.99596
9.50000,-1.58346,-1.00611
9.55000,-1.59146,-1.01029
9.60000,-1.59986,-1.02370
9.65000,-1.60840,-1.02905
9.70000,-1.61640,-1.04069
9.75000,-1.62466,-1.04733
9.80000,-1.63320,-1.05890
9.85000,-1.64160,-1.06692
9.90000,-1.64986,-1.07734
9.95000,-1.65826,-1.08533
10.00000,-1.66666,-1.09640
10.05000,-1.67493,-1.10422
10.10000,-1.68333,-1.11448
10.15000,-1.69173,-1.12304
10.20000,-1.70013,-1.13169
10.25000,-1.70840,-1.14240
10.30000,-1.71653,-1.15127
10.35000,-1.72493,-1.15796
10.40000,-1.73333,-1.16962
10.45000,-1.74146,-1.17835
10.50000,-1.74986,-1.18631
10.55000,-1.75826,-1.19586
10.60000,-1.76640,-1.20375
10.65000,-1.77480,-1.21432
10.70000,-1.78333,-1.21997
10.75000,-1.79160,-1.23248
10.80000,-1.79986,-1.23805
10.85000,-1.80840,-1.24732
10.90000,-1.81680,-1.25628
10.95000,-1.82493,-1.26320
11.00000,-1.83333,-1.27240
11.05000,-1.84186,-1.28275
11.10000,-1.85000,-1.28893
11.15000,-1.85826,-1.29867
11.20000,-1.86653,-1.30650
11.25000,-1.87493,-1.31693
11.30000,-1.88320,-1.32402
11.35000,-1.89146,-1.33170
11.40000,-1.89986,-1.34265
11.45000,-1.90826,-1.34891
11.50000,-1.91653,-1.36055
11.55000,-1.92480,-1.36556
11.60000,-1.93346,-1.37563
11.65000,-1.94173,-1.38492
11.70000,-1.94973,-1.39241
11.75000,-1.95826,-1.40037
11.80000,-1.96680,-1.41101
11.85000,-1.97493,-1.41806
11.90000,-1.98320,-1.42752
11.95000,-1.99173,-1.43444
12.00000,-1.99986,-1.44558
12.05000,-2.00813,-1.45185
12.10000,-2.01653,-1.46207
12.15000,-2.02480,-1.46904
12.20000,-2.03306,-1.47957
12.25000,-2.04146,-1.48651
12.30000,-2.04986,-1.49816
12.35000,-2.05826,-1.50366
12.40000,-2.06653,-1.51704
12.45000,-2.07480,-1.52054
12.50000,-2.08333,-1.53449
12.55000,-2.09173,-1.53962
12.60000,-2.09973,-1.55190
12.65000,-2.10813,-1.55623
12.70000,-2.11653,-1.56882
12.75000,-2.12466,-1.57535
12.80000,-2.13306,-1.58708
12.85000,-2.14173,-1.59167
12.90000,-2.14973,-1.60664
12.95000,-2.15799,-1.60863
13.00000,-2.16666,-1.62521
13.05000,-2.17493,-1.62418
13.10000,-2.18319,-1.64524
13.15000,-2.19159,-1.64224
13.20000,-2.20013,-1.66034
13.25000,-2.20839,-1.66347
13.30000,-2.21666,-1.67709
13.35000,-2.22493,-1.67987
13.40000,-2.23346,-1.69647
13.45000,-2.24173,-1.69680
13.50000,-2.24986,-1.71270
13.55000,-2.25826,-1.71403
13.60000,-2.26653,-1.73148
13.65000,-2.27466,-1.72811
13.70000,-2.28306,-1.75198
13.75000,-2.29159,-1.74405
13.80000,-2.29973,-1.76880
13.85000,-2.30813,-1.76355
13.90000,-2.31679,-1.78335
13.95000,-2.32493,-1.78338
14.00000,-2.33319,-1.79998
14.05000,-2.34159,-1.80035
14.10000,-2.35013,-1.81766
14.15000,-2.35826,-1.81857
14.20000,-2.36666,-1.83318
14.25000,-2.37506,-1.83676
14.30000,-2.38333,-1.85161
14.35000,-2.39159,-1.85281
14.40000,-2.39986,-1.86828
14.45000,-2.40826,-1.87103
14.50000,-2.41653,-1.88365
14.55000,-2.42466,-1.89054
14.60000,-2.43319,-1.89883
14.65000,-2.44173,-1.90579
14.70000,-2.44999,-1.91851
14.75000,-2.45813,-1.92247
14.80000,-2.46666,-1.93335
14.85000,-2.47506,-1.94037
14.90000,-2.48319,-1.95050
14.95000,-2.49159,-1.95502
15.00000,-2.50013,-1.96822
15.05000,-2.50813,-1.97025
15.10000,-2.51639,-1.98557
15.15000,-2.52506,-1.98607
15.20000,-2.53306,-2.00119
15.25000,-2.54146,-2.00430
15.30000,-2.54986,-2.01531
15.35000,-2.55799,-2.02306
15.40000,-2.56639,-2.03064
15.45000,-2.57479,-2.03944
15.50000,-2.58319,-2.04575
15.55000,-2.59159,-2.05858
15.60000,-2.59999,-2.06176
15.65000,-2.60813,-2.07396
15.70000,-2.61666,-2.07959
15.75000,-2.62506,-2.09070
15.80000,-2.63306,-2.09479
15.85000,-2.64173,-2.10708
15.90000,-2.65013,-2.10952
15.95000,-2.65799,-2.12540
16.00000,-2.66639,-2.12591
16.05000,-2.67506,-2.14066
16.10000,-2.68293,-2.14271
16.15000,-2.69119,-2.15537
16.20000,-2.69986,-2.15955
16.25000,-2.70813,-2.17203
16.30000,-2.71639,-2.17521
16.35000,-2.72493,-2.18875
16.40000,-2.73333,-2.19176
16.45000,-2.74159,-2.20318
16.50000,-2.74999,-2.20701
16.55000,-2.75826,-2.21782
16.60000,-2.76666,-2.22223
16.65000,-2.77493,-2.23275
16.70000,-2.78306,-2.23821
16.75000,-2.79159,-2.24754
16.80000,-2.79999,-2.25417
16.85000,-2.80813,-2.26468
16.90000,-2.81653,-2.26757
16.95000,-2.82493,-2.27740
17.00000,-2.83306,-2.28721
17.05000,-2.84146,-2.29044
17.10000,-2.85013,-2.30211
17.15000,-2.85839,-2.30857
17.20000,-2.86653,-2.31693
17.25000,-2.87506,-2.32250
17.30000,-2.88333,-2.33224
17.35000,-2.89159,-2.33651
17.40000,-2.89999,-2.33883
17.45000,-2.90839,-2.32935
17.50000,-2.91666,-2.33492
17.55000,-2.92493,-2.34426
17.60000,-2.93333,-2.35422
17.65000,-2.94173,-2.36018
17.70000,-2.94999,-2.37485
17.75000,-2.95826,-2.37345
17.80000,-2.96653,-2.39391
17.85000,-2.97493,-2.38921
17.90000,-2.98333,-2.40690
17.95000,-2.99159,-2.40832
18.00000,-3.00013,-2.42213
18.05000,-3.00839,-2.42452
18.10000,-3.01666,-2.43636
18.15000,-3.02506,-2.44032
18.20000,-3.03359,-2.45299
18.25000,-3.04159,-2.45288
18.30000,-3.04986,-2.46962
18.35000,-3.05839,-2.46512
18.40000,-3.06653,-2.48598
18.45000,-3.07466,-2.47462
18.50000,-3.08306,-2.50021
18.55000,-3.09133,-2.48989
18.60000,-3.09959,-2.50871
18.65000,-3.10813,-2.50796
18.70000,-3.11653,-2.52291
18.75000,-3.12493,-2.52263
18.80000,-3.13319,-2.53848
18.85000,-3.14146,-2.53991
18.90000,-3.14999,-2.54701
18.95000,-3.15839,-2.56097
19.00000,-3.16639,-2.55852
19.05000,-3.17493,-2.57357
19.10000,-3.18346,-2.57515
19.15000,-3.19146,-2.58785
19.20000,-3.19973,-2.58728
19.25000,-3.20839,-2.60352
19.30000,-3.21639,-2.59993
19.35000,-3.22466,-2.61946
19.40000,-3.23333,-2.61151
19.45000,-3.24173,-2.63600
19.50000,-3.24986,-2.62343
19.55000,-3.25826,-2.65653
19.60000,-3.26666,-2.62952
19.65000,-3.27493,-2.67093
19.70000,-3.28333,-2.65275
19.75000,-3.29159,-2.67537
19.80000,-3.29999,-2.66946
19.85000,-3.30839,-2.69091
19.90000,-3.31653,-2.68415
19.95000,-3.32506,-2.70077
20.00000,-3.33346,-2.70301
20.05000,-3.34146,-2.70852
20.10000,-3.34986,-2.72272
20.15000,-3.35826,-2.71854
20.20000,-3.36639,-2.73230
20.25000,-3.37479,-2.73738
20.30000,-3.38346,-2.74618
20.35000,-3.39159,-2.74563
20.40000,-3.39986,-2.76437
20.45000,-3.40839,-2.75534
20.50000,-3.41679,-2.78028
20.55000,-3.42479,-2.76717
20.60000,-3.43319,-2.79155
20.65000,-3.44159,-2.78032
20.70000,-3.44986,-2.80811
20.75000,-3.45812,-2.78992
20.80000,-3.46652,-2.81792
20.85000,-3.47492,-2.81191
20.90000,-3.48332,-2.82384
20.95000,-3.49146,-2.82510
21.00000,-3.49986,-2.83408
21.05000,-3.50826,-2.84214
21.10000,-3.51652,-2.84495
21.15000,-3.52479,-2.85210
21.20000,-3.53346,-2.86039
21.25000,-3.54172,-2.86492
21.30000,-3.54986,-2.87153
21.35000,-3.55826,-2.87781
21.40000,-3.56692,-2.88445
21.45000,-3.57479,-2.88877
21.50000,-3.58306,-2.89748
21.55000,-3.59172,-2.90206
21.60000,-3.59986,-2.90559
21.65000,-3.60812,-2.91944
21.70000,-3.61652,-2.91553
21.75000,-3.62479,-2.92999
21.80000,-3.63292,-2.93024
21.85000,-3.64146,-2.94096
21.90000,-3.64986,-2.94410
21.95000,-3.65826,-2.94797
22.00000,-3.66652,-2.96263
22.05000,-3.67479,-2.96025
22.10000,-3.68332,-2.96679
22.15000,-3.69172,-2.98010
22.20000,-3.69986,-2.97821
22.25000,-3.70826,-2.98735
22.30000,-3.71666,-2.99411
22.35000,-3.72479,-2.99958
22.40000,-3.73306,-3.00329
22.45000,-3.74159,-3.01126
22.50000,-3.74972,-3.01701
22.55000,-3.75799,-3.02398
22.60000,-3.76652,-3.02520
22.65000,-3.77492,-3.03798
22.70000,-3.78319,-3.04035
22.75000,-3.79159,-3.04828
22.80000,-3.79999,-3.05005
22.85000,-3.80826,-3.06427
22.90000,-3.81652,-3.05820
22.95000,-3.82479,-3.07633
23.00000,-3.83332,-3.07269
23.05000,-3.84172,-3.08607
23.10000,-3.84986,-3.08418
23.15000,-3.85839,-3.09882
23.20000,-3.86666,-3.09638
23.25000,-3.87466,-3.10860
23.30000,-3.88306,-3.10790
23.35000,-3.89159,-3.12104
23.40000,-3.89972,-3.11915
23.45000,-3.90812,-3.13308
23.50000,-3.91679,-3.13025
23.55000,-3.92506,-3.14637
23.60000,-3.93319,-3.14313
23.65000,-3.94159,-3.15146
23.70000,-3.95012,-3.16054
23.75000,-3.95826,-3.16130
23.80000,-3.96666,-3.16751
23.85000,-3.97519,-3.17722
23.90000,-3.98346,-3.17764
23.95000,-3.99159,-3.18628
24.00000,-3.99999,-3.18854
24.05000,-4.00839,-3.19765
24.10000,-4.01666,-3.19931
24.15000,-4.02479,-3.20820
24.20000,-4.03319,-3.20965
24.25000,-4.04172,-3.21766
24.30000,-4.04999,-3.22295
24.35000,-4.05826,-3.22805
24.40000,-4.06679,-3.23012
24.45000,-4.07506,-3.24290
24.50000,-4.08319,-3.24004
24.55000,-4.09159,-3.24788
24.60000,-4.09999,-3.25433
24.65000,-4.10812,-3.25764
24.70000,-4.11626,-3.25929
24.75000,-4.12492,-3.26761
24.80000,-4.13306,-3.27115
24.85000,-4.14132,-3.27673
24.90000,-4.14986,-3.28002
24.95000,-4.15812,-3.28814
25.00000,-4.16639,-3.29013
25.05000,-4.17492,-3.29647
25.10000,-4.18319,-3.30226
25.15000,-4.19159,-3.30965
25.20000,-4.19999,-3.30826
25.25000,-4.20812,-3.32046
25.30000,-4.21666,-3.32272
25.35000,-4.22506,-3.32699
25.40000,-4.23306,-3.33365
25.45000,-4.24146,-3.33881
25.50000,-4.24999,-3.34358
25.55000,-4.25799,-3.34768
25.60000,-4.26639,-3.35522
25.65000,-4.27492,-3.35757
25.70000,-4.28306,-3.36530
25.75000,-4.29132,-3.36878
25.80000,-4.29986,-3.37562
25.85000,-4.30826,-3.37933
25.90000,-4.31652,-3.38596
25.95000,-4.32492,-3.39247
26.00000,-4.33332,-3.39524
26.05000,-4.34159,-3.39853
26.10000,-4.34999,-3.40961
26.15000,-4.35826,-3.40881
26.20000,-4.36679,-3.41691
26.25000,-4.37506,-3.42006
26.30000,-4.38319,-3.42879
26.35000,-4.39172,-3.42800
26.40000,-4.40012,-3.43747
26.45000,-4.40812,-3.44018
26.50000,-4.41639,-3.44682
26.55000,-4.42506,-3.45010
26.60000,-4.43306,-3.45379
26.65000,-4.44146,-3.46566
26.70000,-4.45012,-3.45716
26.75000,-4.45839,-3.48052
26.80000,-4.46652,-3.46660
26.85000,-4.47492,-3.48369
26.90000,-4.48346,-3.48313
26.95000,-4.49159,-3.49092
27.00000,-4.49999,-3.48915
27.05000,-4.50839,-3.50464
27.10000,-4.51666,-3.49634
27.15000,-4.52492,-3.51251
27.20000,-4.53319,-3.50579
27.25000,-4.54159,-3.52562
27.30000,-4.54986,-3.50907
27.35000,-4.55812,-3.53473
27.40000,-4.56652,-3.52336
27.45000,-4.57506,-3.53739
27.50000,-4.58319,-3.53778
27.55000,-4.59146,-3.54317
27.60000,-4.59999,-3.54594
27.65000,-4.60839,-3.55356
27.70000,-4.61639,-3.55229
27.75000,-4.62492,-3.56237
27.80000,-4.63346,-3.56055
27.85000,-4.64159,-3.57103
27.90000,-4.64986,-3.57059
27.95000,-4.65839,-3.57857
28.00000,-4.66652,-3.57917
28.05000,-4.67466,-3.58656
28.10000,-4.68319,-3.58672
28.15000,-4.69132,-3.59346
28.20000,-4.69972,-3.59623
28.25000,-4.70812,-3.60266
28.30000,-4.71639,-3.60564
28.35000,-4.72492,-3.60949
28.40000,-4.73332,-3.61636
28.45000,-4.74145,-3.61717
28.50000,-4.74999,-3.62531
28.55000,-4.75826,-3.62474
28.60000,-4.76639,-3.63612
28.65000,-4.77479,-3.63299
28.70000,-4.78332,-3.64520
28.75000,-4.79145,-3.64242
28.80000,-4.79985,-3.65376
28.85000,-4.80839,-3.65217
28.90000,-4.81639,-3.66123
28.95000,-4.82466,-3.66124
29.00000,-4.83319,-3.66817
29.05000,-4.84159,-3.67248
29.10000,-4.84972,-3.67483
29.15000,-4.85825,-3.68057
29.20000,-4.86679,-3.68545
29.25000,-4.87492,-3.68852
29.30000,-4.88332,-3.69371
29.35000,-4.89159,-3.69694
29.40000,-4.89999,-3.70148
29.45000,-4.90839,-3.70526
29.50000,-4.91639,-3.70918
29.55000,-4.92505,-3.71216
29.60000,-4.93332,-3.71569
29.65000,-4.94145,-3.72099
29.70000,-4.94985,-3.72119
29.75000,-4.95825,-3.72691
29.80000,-4.96652,-3.73038
29.85000,-4.97479,-3.73357
29.90000,-4.98332,-3.73753
29.95000,-4.99172,-3.74128
30.00000,-4.99985,-3.74585
30.05000,-5.00839,-3.74651
30.10000,-5.01679,-3.75151
30.15000,-5.02492,-3.75502
30.20000,-5.03319,-3.75652
30.25000,-5.04172,-3.76250
30.30000,-5.04999,-3.76178
30.35000,-5.05812,-3.77118
30.40000,-5.06652,-3.76924
30.45000,-5.07492,-3.77602
30.50000,-5.08319,-3.77743
30.55000,-5.09132,-3.78351
30.60000,-5.09985,-3.78333
30.65000,-5.10839,-3.79180
30.70000,-5.11665,-3.79077
30.75000,-5.12492,-3.79852
30.80000,-5.13332,-3.79693
30.85000,-5.14172,-3.80518
30.90000,-5.14985,-3.80318
30.95000,-5.15825,-3.81083
31.00000,-5.16679,-3.81149
31.05000,-5.17492,-3.81540
31.10000,-5.18319,-3.81707
31.15000,-5.19159,-3.82227
31.20000,-5.19985,-3.82094
31.25000,-5.20812,-3.82834
31.30000,-5.21652,-3.82801
31.35000,-5.22492,-3.83459
31.40000,-5.23305,-3.83281
31.45000,-5.24145,-3.84187
31.50000,-5.24972,-3.83915
31.55000,-5.25825,-3.84650
31.60000,-5.26665,-3.84696
31.65000,-5.27479,-3.85359
31.70000,-5.28332,-3.85132
31.75000,-5.29159,-3.86052
31.80000,-5.29972,-3.85848
31.85000,-5.30825,-3.86507
31.90000,-5.31679,-3.86569
31.95000,-5.32479,-3.87196
32.00000,-5.33319,-3.87077
32.05000,-5.34172,-3.87740
32.10000,-5.34972,-3.87749
32.15000,-5.35785,-3.88148
32.20000,-5.36652,-3.88314
32.25000,-5.37479,-3.88696
32.30000,-5.38305,-3.89152
32.35000,-5.39159,-3.89074
32.40000,-5.39999,-3.89849
32.45000,-5.40825,-3.89760
32.50000,-5.41665,-3.90324
32.55000,-5.42492,-3.90279
32.60000,-5.43332,-3.90876
32.65000,-5.44172,-3.90892
32.70000,-5.44985,-3.91521
32.75000,-5.45839,-3.91295
32.80000,-5.46679,-3.92136
32.85000,-5.47479,-3.91874
32.90000,-5.48319,-3.92428
32.95000,-5.49159,-3.92313
33.00000,-5.49985,-3.93170
33.05000,-5.50812,-3.92783
33.10000,-5.51665,-3.93519
33.15000,-5.52505,-3.93588
33.20000,-5.53319,-3.94089
33.25000,-5.54172,-3.93975
33.30000,-5.55012,-3.94659
33.35000,-5.55825,-3.94616
33.40000,-5.56665,-3.95034
33.45000,-5.57505,-3.95144
33.50000,-5.58332,-3.95502
33.55000,-5.59159,-3.95663
33.60000,-5.59999,-3.96048
33.65000,-5.60825,-3.96081
33.70000,-5.61652,-3.96622
33.75000,-5.62465,-3.96628
33.80000,-5.63305,-3.96950
33.85000,-5.64159,-3.97104
33.90000,-5.64999,-3.97512
33.95000,-5.65825,-3.97711
34.00000,-5.66679,-3.97803
34.05000,-5.67505,-3.98134
34.10000,-5.68319,-3.98340
34.15000,-5.69159,-3.98534
34.20000,-5.70012,-3.98768
34.25000,-5.70812,-3.99021
34.30000,-5.71652,-3.99155
34.35000,-5.72492,-3.99485
34.40000,-5.73319,-3.99544
34.45000,-5.74145,-3.99751
34.50000,-5.74985,-3.99961
34.55000,-5.75812,-4.00234
34.60000,-5.76639,-4.00265
34.65000,-5.77479,-4.00639
34.70000,-5.78319,-4.00743
34.75000,-5.79172,-4.01062
34.80000,-5.79999,-4.01294
34.85000,-5.80812,-4.01380
34.90000,-5.81665,-4.01586
34.95000,-5.82505,-4.01869
35.00000,-5.83305,-4.02030
35.05000,-5.84159,-4.02193
35.10000,-5.84999,-4.02468
35.15000,-5.85799,-4.02598
35.20000,-5.86639,-4.02726
35.25000,-5.87492,-4.03090
35.30000,-5.88305,-4.03228
35.35000,-5.89132,-4.03349
35.40000,-5.89985,-4.03656
35.45000,-5.90812,-4.03802
35.50000,-5.91639,-4.04255
35.55000,-5.92479,-4.04300
35.60000,-5.93332,-4.04716
35.65000,-5.94172,-4.04860
35.70000,-5.95012,-4.05163
35.75000,-5.95825,-4.05425
35.80000,-5.96665,-4.05588
35.85000,-5.97505,-4.05927
35.90000,-5.98305,-4.06101
35.95000,-5.99159,-4.06255
36.00000,-5.99999,-4.06711
36.05000,-6.00812,-4.06844
36.10000,-6.01639,-4.07000
36.15000,-6.02492,-4.07256
36.20000,-6.03305,-4.07597
36.25000,-6.04145,-4.07744
36.30000,-6.04999,-4.08056
36.35000,-6.05825,-4.08346
36.40000,-6.06652,-4.08504
36.45000,-6.07505,-4.08753
36.50000,-6.08345,-4.09130
36.55000,-6.09159,-4.09234
36.60000,-6.09998,-4.09575
36.65000,-6.10839,-4.09820
36.70000,-6.11665,-4.10102
36.75000,-6.12492,-4.10321
36.80000,-6.13319,-4.10605
36.85000,-6.14172,-4.10699
36.90000,-6.14998,-4.11070
36.95000,-6.15825,-4.11330
37.00000,-6.16652,-4.11373
37.05000,-6.17492,-4.11802
37.10000,-6.18319,-4.11935
37.15000,-6.19158,-4.12159
37.20000,-6.20012,-4.12444
37.25000,-6.20838,-4.12712
37.30000,-6.21652,-4.12858
37.35000,-6.22505,-4.13015
37.40000,-6.23345,-4.13276
37.45000,-6.24145,-4.13492
37.50000,-6.24972,-4.13602
37.55000,-6.25838,-4.13973
37.60000,-6.26652,-4.13967
37.65000,-6.27478,-4.14487
37.70000,-6.28318,-4.14440
37.75000,-6.29132,-4.14971
37.80000,-6.29958,-4.14761
37.85000,-6.30812,-4.15317
37.90000,-6.31652,-4.15300
37.95000,-6.32492,-4.15915
38.00000,-6.33332,-4.15723
38.05000,-6.34145,-4.16219
38.10000,-6.34998,-4.16035
38.15000,-6.35825,-4.16620
38.20000,-6.36638,-4.16823
38.25000,-6.37492,-4.16601
38.30000,-6.38345,-4.17082
38.35000,-6.39132,-4.17476
38.40000,-6.39972,-4.16920
38.45000,-6.40825,-4.17688
38.50000,-6.41625,-4.17727
38.55000,-6.42465,-4.17669
38.60000,-6.43332,-4.18291
38.65000,-6.44158,-4.18139
38.70000,-6.44985,-4.18538
38.75000,-6.45825,-4.18930
38.80000,-6.46665,-4.18452
38.85000,-6.47492,-4.19185
38.90000,-6.48332,-4.19261
38.95000,-6.49158,-4.19456
39.00000,-6.50012,-4.19159
39.05000,-6.50838,-4.20221
39.10000,-6.51652,-4.19534
39.15000,-6.52492,-4.20264
39.20000,-6.53332,-4.19747
39.25000,-6.54145,-4.20878
39.30000,-6.54985,-4.20027
39.35000,-6.55825,-4.20831
39.40000,-6.56638,-4.20693
39.45000,-6.57478,-4.20871
39.50000,-6.58345,-4.20684
39.55000,-6.59158,-4.21663
39.60000,-6.59985,-4.20567
39.65000,-6.60825,-4.21739
39.70000,-6.61678,-4.21308
39.75000,-6.62505,-4.21705
39.80000,-6.63345,-4.21428
39.85000,-6.64172,-4.22107
39.90000,-6.64998,-4.21584
39.95000,-6.65825,-4.22103
40.00000,-6.66652,-4.22303
40.05000,-6.67492,-4.21796
40.10000,-6.68318,-4.22469
40.15000,-6.69132,-4.22501
40.20000,-6.69972,-4.22241
40.25000,-6.70825,-4.22581
40.30000,-6.71665,-4.22791
40.35000,-6.72492,-4.22992
40.40000,-6.73345,-4.22505
40.45000,-6.74172,-4.23332
40.50000,-6.74985,-4.23035
40.55000,-6.75825,-4.22875
40.60000,-6.76678,-4.23309
40.65000,-6.77492,-4.23131
40.70000,-6.78332,-4.23176
40.75000,-6.79185,-4.23043
40.80000,-6.79985,-4.23719
40.85000,-6.80812,-4.22946
40.90000,-6.81665,-4.23346
40.95000,-6.82478,-4.23884
41.00000,-6.83305,-4.22728
41.05000,-6.84158,-4.24508
41.10000,-6.84972,-4.22502
41.15000,-6.85825,-4.24589
41.20000,-6.86652,-4.23219
41.25000,-6.87478,-4.24122
41.30000,-6.88332,-4.23489
41.35000,-6.89158,-4.24457
41.40000,-6.89972,-4.23344
41.45000,-6.90825,-4.24395
41.50000,-6.91665,-4.23826
41.55000,-6.92478,-4.24208
41.60000,-6.93318,-4.23613
41.65000,-6.94172,-4.24331
41.70000,-6.94972,-4.23648
41.75000,-6.95798,-4.23975
41.80000,-6.96652,-4.23859
41.85000,-6.97478,-4.24056
41.90000,-6.98305,-4.23802
41.95000,-6.99145,-4.23978
42.00000,-6.99985,-4.24246
42.05000,-7.00812,-4.23437
42.10000,-7.01652,-4.24900
42.15000,-7.02492,-4.23581
42.20000,-7.03332,-4.24431
42.25000,-7.04172,-4.24435
42.30000,-7.04985,-4.23751
42.35000,-7.05825,-4.25096
42.40000,-7.06665,-4.23144
42.45000,-7.07465,-4.25524
42.50000,-7.08318,-4.23390
42.55000,-7.09158,-4.25131
42.60000,-7.09985,-4.23784
42.65000,-7.10812,-4.25182
42.70000,-7.11678,-4.23709
42.75000,-7.12492,-4.25579
42.80000,-7.13318,-4.23773
42.85000,-7.14158,-4.25371
42.90000,-7.15012,-4.24287
42.95000,-7.15825,-4.25152
43.00000,-7.16678,-4.24574
43.05000,-7.17518,-4.25354
43.10000,-7.18332,-4.24703
43.15000,-7.19145,-4.25056
43.20000,-7.19985,-4.24982
43.25000,-7.20825,-4.25130
43.30000,-7.21652,-4.25044
43.35000,-7.22492,-4.24989
43.40000,-7.23318,-4.25592
43.45000,-7.24158,-4.24500
43.50000,-7.24985,-4.25852
43.55000,-7.25825,-4.24459
43.60000,-7.26678,-4.25862
43.65000,-7.27505,-4.24710
43.70000,-7.28318,-4.25808
43.75000,-7.29158,-4.24757
43.80000,-7.30012,-4.25739
43.85000,-7.30812,-4.24872
43.90000,-7.31652,-4.25625
43.95000,-7.32505,-4.24989
44.00000,-7.33305,-4.25938
44.05000,-7.34132,-4.24987
44.10000,-7.34972,-4.25686
44.15000,-7.35798,-4.25460
44.20000,-7.36638,-4.25719
44.25000,-7.37478,-4.25582
44.30000,-7.38318,-4.25833
44.35000,-7.39158,-4.25915
44.40000,-7.39985,-4.25745
44.45000,-7.40798,-4.25917
44.50000,-7.41665,-4.26042
44.55000,-7.42492,-4.26132
44.60000,-7.43305,-4.25993
44.65000,-7.44158,-4.26226
44.70000,-7.45011,-4.26383
44.75000,-7.45811,-4.26270
44.80000,-7.46638,-4.26162
44.85000,-7.47492,-4.26488
44.90000,-7.48305,-4.26193
44.95000,-7.49132,-4.26654
45.00000,-7.49985,-4.26339
45.05000,-7.50811,-4.26737
45.10000,-7.51638,-4.26482
45.15000,-7.52492,-4.26947
45.20000,-7.53332,-4.26593
45.25000,-7.54158,-4.27070
45.30000,-7.54998,-4.26489
45.35000,-7.55825,-4.27615
45.40000,-7.56665,-4.26555
45.45000,-7.57505,-4.27500
45.50000,-7.58318,-4.26905
45.55000,-7.59171,-4.27605
45.60000,-7.59998,-4.26939
45.65000,-7.60811,-4.27800
45.70000,-7.61638,-4.27097
45.75000,-7.62491,-4.27805
45.80000,-7.63305,-4.27420
45.85000,-7.64145,-4.28057
45.90000,-7.65011,-4.27780
45.95000,-7.65838,-4.28139
46.00000,-7.66651,-4.28111
46.05000,-7.67505,-4.28204
46.10000,-7.68345,-4.28469
46.15000,-7.69158,-4.28279
46.20000,-7.70011,-4.28679
46.25000,-7.70838,-4.28607
46.30000,-7.71651,-4.28752
46.35000,-7.72491,-4.28800
46.40000,-7.73318,-4.28969
46.45000,-7.74158,-4.28886
46.50000,-7.74985,-4.29409
46.55000,-7.75811,-4.28786
46.60000,-7.76651,-4.29408
46.65000,-7.77505,-4.29174
46.70000,-7.78331,-4.29746
46.75000,-7.79158,-4.29268
46.80000,-7.80011,-4.29803
46.85000,-7.80838,-4.29628
46.90000,-7.81651,-4.29881
46.95000,-7.82505,-4.29638
47.00000,-7.83345,-4.30254
47.05000,-7.84145,-4.29831
47.10000,-7.84985,-4.30298
47.15000,-7.85838,-4.30116
47.20000,-7.86651,-4.30565
47.25000,-7.87478,-4.30419
47.30000,-7.88318,-4.30627
47.35000,-7.89145,-4.30869
47.40000,-7.89971,-4.30848
47.45000,-7.90811,-4.31122
47.50000,-7.91651,-4.31112
47.55000,-7.92505,-4.31517
47.60000,-7.93331,-4.31511
47.65000,-7.94158,-4.31465
47.70000,-7.95011,-4.32217
47.75000,-7.95838,-4.32047
47.80000,-7.96651,-4.32052
47.85000,-7.97505,-4.32465
47.90000,-7.98345,-4.32476
47.95000,-7.99145,-4.32779
48.00000,-7.99971,-4.32659
48.05000,-8.00825,-4.33083
48.10000,-8.01638,-4.33119
48.15000,-8.02465,-4.33228
48.20000,-8.03331,-4.33555
48.25000,-8.04158,-4.33723
48.30000,-8.04985,-4.34046
48.35000,-8.05825,-4.33922
48.40000,-8.06665,-4.34383
48.45000,-8.07491,-4.34441
48.50000,-8.08318,-4.34514
48.55000,-8.09158,-4.34969
48.60000,-8.09998,-4.34936
48.65000,-8.10838,-4.35350
48.70000,-8.11665,-4.35541
48.75000,-8.12505,-4.35639
48.80000,-8.13345,-4.35911
48.85000,-8.14145,-4.36141
48.90000,-8.14985,-4.36056
48.95000,-8.15825,-4.36717
49.00000,-8.16638,-4.36560
49.05000,-8.17478,-4.37147
49.10000,-8.18345,-4.36897
49.15000,-8.19171,-4.37907
49.20000,-8.19985,-4.37419
49.25000,-8.20838,-4.38219
49.30000,-8.21678,-4.38085
49.35000,-8.22491,-4.38655
49.40000,-8.23331,-4.38458
49.45000,-8.24185,-4.39307
49.50000,-8.24998,-4.38829
49.55000,-8.25825,-4.39776
49.60000,-8.26651,-4.39315
49.65000,-8.27505,-4.40347
49.70000,-8.28331,-4.39691
49.75000,-8.29158,-4.40897
49.80000,-8.29998,-4.40359
49.85000,-8.30838,-4.41074
49.90000,-8.31665,-4.41047
49.95000,-8.32491,-4.41489
50.00000,-8.33345,-4.41455
50.05000,-8.34171,-4.42182
50.10000,-8.34985,-4.41810
50.15000,-8.35838,-4.42432
50.20000,-8.36678,-4.42499
50.25000,-8.37491,-4.43078
50.30000,-8.38331,-4.42714
50.35000,-8.39171,-4.43422
50.40000,-8.39985,-4.43247
50.45000,-8.40811,-4.43709
50.50000,-8.41651,-4.43869
50.55000,-8.42478,-4.44083
50.60000,-8.43305,-4.44173
50.65000,-8.44145,-4.44588
50.70000,-8.44985,-4.44696
50.75000,-8.45838,-4.45066
50.80000,-8.46665,-4.45322
50.85000,-8.47478,-4.45476
50.90000,-8.48331,-4.45701
50.95000,-8.49158,-4.45912
51.00000,-8.49971,-4.46339
51.05000,-8.50825,-4.46320
51.10000,-8.51678,-4.46772
51.15000,-8.52478,-4.46892
51.20000,-8.53318,-4.47144
51.25000,-8.54171,-4.47248
51.30000,-8.54985,-4.47703
51.35000,-8.55798,-4.47799
51.40000,-8.56651,-4.48100
51.45000,-8.57478,-4.48164
51.50000,-8.58318,-4.48756
51.55000,-8.59158,-4.48550
51.60000,-8.59998,-4.49067
51.65000,-8.60838,-4.48985
51.70000,-8.61678,-4.49575
51.75000,-8.62505,-4.49555
51.80000,-8.63345,-4.49840
51.85000,-8.64171,-4.50072
51.90000,-8.64985,-4.50211
51.95000,-8.65838,-4.50391
52.00000,-8.66665,-4.50679
52.05000,-8.67478,-4.50899
52.10000,-8.68318,-4.51014
52.15000,-8.69171,-4.51310
52.20000,-8.69985,-4.51678
52.25000,-8.70811,-4.51853
52.30000,-8.71678,-4.51994
52.35000,-8.72505,-4.51926
52.40000,-8.73318,-4.52748
52.45000,-8.74158,-4.52481
52.50000,-8.74998,-4.52839
52.55000,-8.75825,-4.52988
52.60000,-8.76665,-4.53246
52.65000,-8.77505,-4.53283
52.70000,-8.78331,-4.53727
52.75000,-8.79158,-4.53633
52.80000,-8.79998,-4.53980
52.85000,-8.80838,-4.54086
52.90000,-8.81665,-4.54565
52.95000,-8.82478,-4.54440
53.00000,-8.83318,-4.54778
53.05000,-8.84171,-4.54915
53.10000,-8.84998,-4.55252
53.15000,-8.85824,-4.55198
53.20000,-8.86678,-4.55460
53.25000,-8.87504,-4.55730
53.30000,-8.88318,-4.55754
53.35000,-8.89171,-4.55988
53.40000,-8.90024,-4.56249
53.45000,-8.90824,-4.56417
53.50000,-8.91665,-4.56628
53.55000,-8.92504,-4.56899
53.60000,-8.93318,-4.56918
53.65000,-8.94144,-4.57271
53.70000,-8.94998,-4.57301
53.75000,-8.95824,-4.57660
53.80000,-8.96651,-4.57907
53.85000,-8.97491,-4.58068
53.90000,-8.98318,-4.58332
53.95000,-8.99158,-4.58518
54.00000,-8.99985,-4.58909
54.05000,-9.00811,-4.58999
54.10000,-9.01665,-4.59339
54.15000,-9.02504,-4.59597
54.20000,-9.03304,-4.59880
54.25000,-9.04158,-4.60088
54.30000,-9.04998,-4.60279
54.35000,-9.05798,-4.60437
54.40000,-9.06638,-4.60646
54.45000,-9.07491,-4.60839
54.50000,-9.08304,-4.61186
54.55000,-9.09131,-4.61369
54.60000,-9.09998,-4.61602
54.65000,-9.10824,-4.61989
54.70000,-9.11651,-4.62147
54.75000,-9.12491,-4.62639
54.80000,-9.13331,-4.62693
54.85000,-9.14171,-4.63085
54.90000,-9.14998,-4.63334
54.95000,-9.15811,-4.63512
55.00000,-9.16664,-4.63614
55.05000,-9.17504,-4.63986
55.10000,-9.18304,-4.64290
55.15000,-9.19171,-4.64350
55.20000,-9.20011,-4.64705
55.25000,-9.20811,-4.64882
55.30000,-9.21651,-4.65114
55.35000,-9.22504,-4.65347
55.40000,-9.23318,-4.65534
55.45000,-9.24144,-4.65791
55.50000,-9.25011,-4.65961
55.55000,-9.25824,-4.66413
55.60000,-9.26651,-4.66241
55.65000,-9.27518,-4.66793
55.70000,-9.28358,-4.67038
55.75000,-9.29171,-4.67259
55.80000,-9.30011,-4.67329
55.85000,-9.30838,-4.67718
55.90000,-9.31651,-4.67663
55.95000,-9.32464,-4.67873
56.00000,-9.33304,-4.67991
56.05000,-9.34158,-4.68432
56.10000,-9.34984,-4.68510
56.15000,-9.35798,-4.68917
56.20000,-9.36638,-4.68822
56.25000,-9.37491,-4.69288
56.30000,-9.38318,-4.69308
56.35000,-9.39144,-4.69589
56.40000,-9.40011,-4.69750
56.45000,-9.40851,-4.70046
56.50000,-9.41664,-4.70165
56.55000,-9.42504,-4.70350
56.60000,-9.43371,-4.70497
56.65000,-9.44171,-4.70593
56.70000,-9.44998,-4.70910
56.75000,-9.45851,-4.70946
56.80000,-9.46664,-4.71082
56.85000,-9.47478,-4.71351
56.90000,-9.48318,-4.71502
56.95000,-9.49144,-4.71736
57.00000,-9.49984,-4.71859
57.05000,-9.50811,-4.72323
57.10000,-9.51638,-4.72247
57.15000,-9.52504,-4.72820
57.20000,-9.53331,-4.72813
57.25000,-9.54144,-4.73267
57.30000,-9.55011,-4.73275
57.35000,-9.55838,-4.73735
57.40000,-9.56651,-4.73664
57.45000,-9.57491,-4.74147
57.50000,-9.58331,-4.74185
57.55000,-9.59131,-4.74441
57.60000,-9.59971,-4.74518
57.65000,-9.60838,-4.74961
57.70000,-9.61651,-4.75099
57.75000,-9.62478,-4.75352
57.80000,-9.63318,-4.75483
57.85000,-9.64158,-4.75887
57.90000,-9.64998,-4.75959
57.95000,-9.65838,-4.76344
58.00000,-9.66678,-4.76447
58.05000,-9.67504,-4.76745
58.10000,-9.68331,-4.76974
58.15000,-9.69158,-4.77278
58.20000,-9.70011,-4.77385
58.25000,-9.70838,-4.77680
58.30000,-9.71651,-4.77903
58.35000,-9.72504,-4.78050
58.40000,-9.73344,-4.78410
58.45000,-9.74144,-4.78609
58.50000,-9.74984,-4.78658
58.55000,-9.75838,-4.78895
58.60000,-9.76651,-4.79242
58.65000,-9.77478,-4.79390
58.70000,-9.78344,-4.79650
58.75000,-9.79171,-4.80017
58.80000,-9.79998,-4.80207
58.85000,-9.80838,-4.80410
58.90000,-9.81678,-4.80651
58.95000,-9.82491,-4.80954
59.00000,-9.83344,-4.81069
59.05000,-9.84171,-4.81458
59.10000,-9.85011,-4.81636
59.15000,-9.85838,-4.81996
59.20000,-9.86664,-4.82158
59.25000,-9.87504,-4.82373
59.30000,-9.88331,-4.82686
59.35000,-9.89144,-4.82965
59.40000,-9.89984,-4.83132
59.45000,-9.90838,-4.83444
59.50000,-9.91651,-4.83722
59.55000,-9.92478,-4.83916
59.60000,-9.93331,-4.84134
59.65000,-9.94171,-4.84584
59.70000,-9.94984,-4.84676
59.75000,-9.95838,-4.84977
59.80000,-9.96678,-4.85302
59.85000,-9.97478,-4.85319
59.90000,-9.98304,-4.85589
59.95000,-9.99158,-4.85796
60.00000,-9.99984,-4.86101
60.05000,-10.00811,-4.86171
60.10000,-10.01651,-4.86608
60.15000,-10.02478,-4.86634
60.20000,-10.03304,-4.86932
60.25000,-10.04144,-4.87120
60.30000,-10.04984,-4.87428
60.35000,-10.05838,-4.87613
60.40000,-10.06664,-4.87980
60.45000,-10.07478,-4.87932
60.50000,-10.08331,-4.88315
60.55000,-10.09171,-4.88560
60.60000,-10.09984,-4.88805
60.65000,-10.10837,-4.88863
60.70000,-10.11691,-4.89444
60.75000,-10.12491,-4.89294
60.80000,-10.13318,-4.89742
60.85000,-10.14171,-4.89820
60.90000,-10.14971,-4.90169
60.95000,-10.15798,-4.90090
61.00000,-10.16651,-4.90625
61.05000,-10.17491,-4.90698
61.10000,-10.18318,-4.91134
61.15000,-10.19158,-4.91087
61.20000,-10.19998,-4.91610
61.25000,-10.20837,-4.91691
61.30000,-10.21664,-4.92039
61.35000,-10.22491,-4.92126
61.40000,-10.23344,-4.92429
61.45000,-10.24171,-4.92569
61.50000,-10.24984,-4.92785
61.55000,-10.25837,-4.92785
61.60000,-10.26664,-4.93281
61.65000,-10.27478,-4.93102
61.70000,-10.28317,-4.93501
61.75000,-10.29171,-4.93339
61.80000,-10.29984,-4.93881
61.85000,-10.30811,-4.93641
61.90000,-10.31664,-4.94193
61.95000,-10.32504,-4.94364
62.00000,-10.33317,-4.94455
62.05000,-10.34171,-4.94824
62.10000,-10.35011,-4.95102
62.15000,-10.35824,-4.95083
62.20000,-10.36678,-4.95542
62.25000,-10.37517,-4.95617
62.30000,-10.38344,-4.95826
62.35000,-10.39157,-4.96061
62.40000,-10.39984,-4.96131
62.45000,-10.40837,-4.96521
62.50000,-10.41664,-4.96629
62.55000,-10.42478,-4.97006
62.60000,-10.43317,-4.96911
62.65000,-10.44157,-4.97505
62.70000,-10.44984,-4.97449
62.75000,-10.45811,-4.97925
62.80000,-10.46677,-4.97948
62.85000,-10.47517,-4.98609
62.90000,-10.48317,-4.98431
62.95000,-10.49157,-4.98857
63.00000,-10.50011,-4.98962
63.05000,-10.50811,-4.99267
63.10000,-10.51651,-4.99296
63.15000,-10.52504,-4.99692
63.20000,-10.53317,-4.99917
63.25000,-10.54144,-5.00048
63.30000,-10.54984,-5.00358
63.35000,-10.55811,-5.00493
63.40000,-10.56637,-5.00812
63.45000,-10.57491,-5.00968
63.50000,-10.58317,-5.01213
63.55000,-10.59157,-5.01500
63.60000,-10.59984,-5.01879
63.65000,-10.60824,-5.01920
63.70000,-10.61691,-5.02456
63.75000,-10.62517,-5.02683
63.80000,-10.63317,-5.02979
63.85000,-10.64171,-5.02967
63.90000,-10.64997,-5.03558
63.95000,-10.65811,-5.03600
64.00000,-10.66637,-5.03967
64.05000,-10.67504,-5.04204
64.10001,-10.68317,-5.04545
64.15000,-10.69131,-5.04598
64.20000,-10.69997,-5.04997
64.25000,-10.70824,-5.05239
64.30000,-10.71651,-5.05610
64.35001,-10.72491,-5.05687
64.40000,-10.73317,-5.06142
64.45000,-10.74157,-5.06266
64.50000,-10.74997,-5.06731
64.55000,-10.75824,-5.06890
64.60001,-10.76677,-5.07314
64.65000,-10.77504,-5.07471
64.70000,-10.78317,-5.07901
64.75000,-10.79171,-5.07924
64.80000,-10.80011,-5.08430
64.85001,-10.80811,-5.08591
64.90000,-10.81624,-5.08728
64.95000,-10.82477,-5.09043
65.00000,-10.83304,-5.09360
65.05000,-10.84131,-5.09562
65.10001,-10.84997,-5.10075
65.15000,-10.85837,-5.10383
65.20000,-10.86651,-5.10720
65.25000,-10.87491,-5.10784
65.30000,-10.88344,-5.11239
65.35001,-10.89171,-5.11459
65.40000,-10.89997,-5.11648
65.45000,-10.90851,-5.11955
65.50000,-10.91677,-5.12218
65.55000,-10.92491,-5.12426
65.60001,-10.93317,-5.12689
65.65000,-10.94157,-5.12826
65.70001,-10.94997,-5.13269
65.75000,-10.95824,-5.13322
65.80000,-10.96664,-5.13570
65.85001,-10.97504,-5.13675
65.90000,-10.98331,-5.13945
65.95001,-10.99157,-5.14023
66.00000,-11.00011,-5.14325
66.05000,-11.00851,-5.14609
66.10001,-11.01664,-5.14894
66.15000,-11.02504,-5.15028
66.20001,-11.03357,-5.15533
66.25000,-11.04157,-5.15591
66.30000,-11.04984,-5.15917
66.35001,-11.05851,-5.16252
66.40000,-11.06651,-5.16320
66.45001,-11.07477,-5.16718
66.50000,-11.08317,-5.16853
66.55000,-11.09144,-5.17201
66.60001,-11.09971,-5.17312
66.65000,-11.10811,-5.17784
66.70001,-11.11651,-5.17959
66.75000,-11.12504,-5.18371
66.80000,-11.13331,-5.18600
66.85001,-11.14157,-5.18932
66.90000,-11.15011,-5.19091
66.95001,-11.15837,-5.19577
67.00000,-11.16651,-5.19670
67.05000,-11.17504,-5.20020
67.10001,-11.18357,-5.20423
67.15000,-11.19157,-5.20693
67.20001,-11.19997,-5.20875
67.25000,-11.20837,-5.21148
67.30000,-11.21651,-5.21536
67.35001,-11.22464,-5.21806
67.40000,-11.23331,-5.22187
67.45001,-11.24157,-5.22498
67.50000,-11.24984,-5.22807
67.55000,-11.25824,-5.23135
67.60001,-11.26664,-5.23471
67.65000,-11.27504,-5.23749
67.70001,-11.28344,-5.24214
67.75000,-11.29171,-5.24568
67.80000,-11.30011,-5.24804
67.85001,-11.30837,-5.25189
67.90000,-11.31637,-5.25399
67.95001,-11.32491,-5.25503
68.00000,-11.33331,-5.26008
68.05000,-11.34131,-5.26313
68.10001,-11.34971,-5.26489
68.15000,-11.35824,-5.26902
68.20001,-11.36637,-5.27187
68.25000,-11.37477,-5.27430
68.30000,-11.38331,-5.27811
68.35001,-11.39157,-5.28127
68.40000,-11.39984,-5.28324
68.45001,-11.40837,-5.28634
68.50000,-11.41691,-5.29070
68.55000,-11.42504,-5.29110
68.60001,-11.43344,-5.29383
68.65000,-11.44184,-5.29541
68.70001,-11.45011,-5.29689
68.75000,-11.45824,-5.29835
68.80000,-11.46664,-5.30147
68.85001,-11.47504,-5.30122
68.90000,-11.48331,-5.30501
68.95001,-11.49157,-5.30416
69.00000,-11.49997,-5.30580
69.05000,-11.50837,-5.30888
69.10001,-11.51664,-5.31395
69.15000,-11.52491,-5.31291
69.20001,-11.53344,-5.31842
69.25000,-11.54171,-5.31863
69.30000,-11.54984,-5.32120
69.35001,-11.55837,-5.32129
69.40000,-11.56677,-5.32708
69.45001,-11.57491,-5.32657
69.50000,-11.58304,-5.32885
69.55000,-11.59157,-5.32920
69.60001,-11.59970,-5.33132
69.65000,-11.60797,-5.33365
69.70001,-11.61650,-5.33567
69.75000,-11.62491,-5.33953
69.80000,-11.63317,-5.34110
69.85001,-11.64144,-5.34405
69.90000,-11.64984,-5.34420
69.95001,-11.65824,-5.34915
70.00000,-11.66664,-5.35233
70.05000,-11.67477,-5.35501
70.10001,-11.68344,-5.35712
70.15000,-11.69171,-5.36108
70.20001,-11.69970,-5.36148
70.25000,-11.70837,-5.36452
70.30000,-11.71677,-5.36782
70.35001,-11.72477,-5.37077
70.40000,-11.73317,-5.37053
70.45001,-11.74170,-5.37395
70.50000,-11.74970,-5.37562
70.55000,-11.75797,-5.37844
70.60001,-11.76650,-5.37943
70.65000,-11.77491,-5.38545
70.70001,-11.78317,-5.38757
70.75000,-11.79170,-5.39028
70.80000,-11.79997,-5.39229
70.85001,-11.80837,-5.39574
70.90000,-11.81664,-5.39825
70.95001,-11.82490,-5.39960
71.00000,-11.83330,-5.40104
71.05000,-11.84170,-5.40461
71.10001,-11.84984,-5.40616
71.15000,-11.85837,-5.40669
71.20001,-11.86677,-5.41195
71.25000,-11.87490,-5.41220
71.30000,-11.88317,-5.41393
71.35001,-11.89170,-5.41545
71.40000,-11.89984,-5.42060
71.45001,-11.90810,-5.42056
71.50000,-11.91677,-5.42476
71.55000,-11.92504,-5.42786
71.60001,-11.93330,-5.42978
71.65000,-11.94170,-5.43069
71.70001,-11.95024,-5.43584
71.75000,-11.95837,-5.43502
71.80000,-11.96677,-5.43976
71.85001,-11.97504,-5.44049
71.90000,-11.98330,-5.44218
71.95001,-11.99157,-5.44367
72.00000,-11.99984,-5.44567
72.05000,-12.00824,-5.44703
72.10001,-12.01664,-5.45041
72.15000,-12.02477,-5.45357
72.20001,-12.03317,-5.45283
72.25000,-12.04157,-5.45771
72.30000,-12.04970,-5.45916
72.35001,-12.05797,-5.46039
72.40000,-12.06650,-5.46289
72.45001,-12.07504,-5.46844
72.50000,-12.08317,-5.46919
72.55000,-12.09157,-5.47197
72.60001,-12.10010,-5.47314
72.65000,-12.10837,-5.47583
72.70001,-12.11664,-5.47995
72.75000,-12.12517,-5.48036
72.80000,-12.13330,-5.48298
72.85001,-12.14157,-5.48400
72.90000,-12.14997,-5.48823
72.95001,-12.15810,-5.48724
73.00000,-12.16650,-5.49155
73.05000,-12.17477,-5.49250
73.10001,-12.18317,-5.49555
73.15000,-12.19157,-5.49815
73.20001,-12.19984,-5.49999
73.25000,-12.20797,-5.50194
73.30000,-12.21664,-5.50461
73.35001,-12.22504,-5.51014
73.40000,-12.23317,-5.51098
73.45001,-12.24170,-5.51399
73.50000,-12.25024,-5.51679
73.55000,-12.25810,-5.52092
73.60001,-12.26650,-5.51932
73.65000,-12.27504,-5.52524
73.70001,-12.28304,-5.52529
73.75000,-12.29130,-5.53005
73.80000,-12.29984,-5.53034
73.85001,-12.30824,-5.53715
73.90000,-12.31650,-5.53811
73.95001,-12.32504,-5.54181
74.00000,-12.33330,-5.54589
74.05000,-12.34157,-5.54755
74.10001,-12.34997,-5.54913
74.15000,-12.35824,-5.55303
74.20001,-12.36664,-5.55705
74.25000,-12.37504,-5.55807
74.30000,-12.38317,-5.56168
74.35001,-12.39170,-5.56217
74.40000,-12.40010,-5.56774
74.45001,-12.40824,-5.56890
74.50000,-12.41650,-5.57070
74.55000,-12.42504,-5.57384
74.60001,-12.43304,-5.57748
74.65000,-12.44144,-5.57874
74.70001,-12.45010,-5.58160
74.75000,-12.45837,-5.58656
74.80000,-12.46650,-5.58757
74.85001,-12.47504,-5.59142
74.90000,-12.48344,-5.59365
74.95001,-12.49157,-5.59501
75.00000,-12.49997,-5.59714
75.05000,-12.50837,-5.59994
75.10001,-12.51677,-5.60268
75.15000,-12.52504,-5.60410
75.20001,-12.53330,-5.60751
75.25000,-12.54170,-5.60637
75.30000,-12.54984,-5.61226
75.35001,-12.55810,-5.61051
75.40000,-12.56650,-5.61606
75.45001,-12.57490,-5.61697
75.50000,-12.58317,-5.62124
75.55000,-12.59157,-5.62273
75.60001,-12.60010,-5.62826
75.65000,-12.60850,-5.62812
75.70001,-12.61664,-5.63270
75.75000,-12.62504,-5.63217
75.80000,-12.63357,-5.63724
75.85001,-12.64157,-5.63551
75.90000,-12.64984,-5.64053
75.95001,-12.65824,-5.63927
76.00000,-12.66637,-5.64096
76.05000,-12.67464,-5.64318
76.10001,-12.68304,-5.64461
76.15000,-12.69144,-5.64897
76.20001,-12.69970,-5.64730
76.25000,-12.70797,-5.65140
76.30000,-12.71637,-5.65174
76.35001,-12.72477,-5.65552
76.40000,-12.73317,-5.65594
76.45001,-12.74144,-5.66054
76.50000,-12.74997,-5.65917
76.55000,-12.75837,-5.66529
76.60001,-12.76650,-5.66251
76.65000,-12.77504,-5.66551
76.70001,-12.78344,-5.66671
76.75000,-12.79144,-5.66874
76.80000,-12.79984,-5.66463
76.85001,-12.80837,-5.66954
76.90000,-12.81637,-5.66698
76.95001,-12.82464,-5.66880
77.00000,-12.83317,-5.66596
77.05000,-12.84157,-5.67251
77.10001,-12.84984,-5.66648
77.15000,-12.85824,-5.67468
77.20001,-12.86663,-5.66724
77.25000,-12.87504,-5.67638
77.30000,-12.88330,-5.66895
77.35001,-12.89170,-5.67734
77.40000,-12.90010,-5.66949
77.45001,-12.90837,-5.67862
77.50000,-12.91650,-5.67081
77.55000,-12.92504,-5.67789
77.60001,-12.93343,-5.67179
77.65000,-12.94143,-5.67939
77.70001,-12.94970,-5.67089
77.75000,-12.95824,-5.67912
77.80000,-12.96650,-5.67438
77.85001,-12.97477,-5.68087
77.90000,-12.98343,-5.67612
77.95001,-12.99170,-5.68264
78.00000,-12.99983,-5.68008
78.05000,-13.00837,-5.68187
78.10001,-13.01677,-5.68314
78.15000,-13.02490,-5.68240
78.20001,-13.03330,-5.68642
78.25000,-13.04170,-5.68505
78.30000,-13.04997,-5.68939
78.35001,-13.05823,-5.68705
78.40000,-13.06650,-5.69243
78.45001,-13.07504,-5.68972
78.50000,-13.08330,-5.69426
78.55000,-13.09143,-5.69412
78.60001,-13.09997,-5.69594
78.65000,-13.10837,-5.69559
78.70001,-13.11663,-5.70189
78.75000,-13.12490,-5.69708
78.80000,-13.13343,-5.70498
78.85001,-13.14183,-5.70119
78.90000,-13.14983,-5.71013
78.95001,-13.15823,-5.70095
79.00000,-13.16677,-5.71288
79.05000,-13.17490,-5.70544
79.10001,-13.18317,-5.71293
79.15000,-13.19170,-5.70917
79.20001,-13.19970,-5.71054
79.25000,-13.20810,-5.71168
79.30000,-13.21650,-5.71450
79.35001,-13.22477,-5.71206
79.40000,-13.23303,-5.71463
79.45001,-13.24143,-5.71590
79.50000,-13.24983,-5.71962
79.55000,-13.25837,-5.71813
79.60001,-13.26663,-5.72339
79.65000,-13.27477,-5.72436
79.70001,-13.28343,-5.72415
79.75000,-13.29170,-5.72856
79.80000,-13.29983,-5.72782
79.85001,-13.30837,-5.73197
79.90000,-13.31677,-5.73203
79.95001,-13.32477,-5.73479
80.00000,-13.33303,-5.73539
80.05000,-13.34157,-5.73559
80.10001,-13.34970,-5.74286
80.15000,-13.35797,-5.73732
80.20001,-13.36650,-5.74567
80.25000,-13.37477,-5.74675
80.30000,-13.38303,-5.74962
80.35001,-13.39157,-5.75120
80.40000,-13.39997,-5.75569
80.45001,-13.40837,-5.75909
80.50001,-13.41690,-5.76169
80.55000,-13.42503,-5.76471
80.60001,-13.43343,-5.76761
80.65000,-13.44183,-5.76937
80.70001,-13.44983,-5.77525
80.75001,-13.45837,-5.77316
80.80000,-13.46677,-5.78177
80.85001,-13.47477,-5.78232
80.90000,-13.48317,-5.78455
80.95001,-13.49157,-5.78835
81.00001,-13.49983,-5.79162
81.05000,-13.50810,-5.79472
81.10001,-13.51677,-5.79858
81.15000,-13.52503,-5.80341
81.20001,-13.53330,-5.80694
81.25001,-13.54170,-5.80555
81.30000,-13.55023,-5.81724
81.35001,-13.55823,-5.81195
81.40000,-13.56663,-5.82251
81.45001,-13.57503,-5.82191
81.50001,-13.58330,-5.82685
81.55000,-13.59157,-5.83059
81.60001,-13.59997,-5.83493
81.65000,-13.60837,-5.83641
81.70001,-13.61663,-5.84258
81.75001,-13.62490,-5.84366
81.80000,-13.63317,-5.84805
81.85001,-13.64157,-5.85043
81.90000,-13.64997,-5.85873
81.95001,-13.65823,-5.85690
82.00001,-13.66677,-5.86537
82.05000,-13.67517,-5.86779
82.10001,-13.68330,-5.87044
82.15000,-13.69170,-5.87389
82.20001,-13.70010,-5.87825
82.25001,-13.70823,-5.88246
82.30000,-13.71650,-5.88155
82.35001,-13.72503,-5.88948
82.40000,-13.73317,-5.88502
82.45001,-13.74143,-5.89687
82.50001,-13.74983,-5.88944
82.55000,-13.75810,-5.90134
82.60001,-13.76637,-5.89882
82.65000,-13.77477,-5.90546
82.70001,-13.78317,-5.90441
82.75001,-13.79157,-5.91176
82.80000,-13.79983,-5.91083
82.85001,-13.80810,-5.91692
82.90000,-13.81677,-5.91364
82.95001,-13.82503,-5.92628
83.00001,-13.83317,-5.91808
83.05000,-13.84170,-5.93039
83.10001,-13.85010,-5.92514
83.15000,-13.85810,-5.93671
83.20001,-13.86650,-5.93113
83.25001,-13.87503,-5.94124
83.30000,-13.88303,-5.94005
83.35001,-13.89130,-5.94817
83.40000,-13.89983,-5.94548
83.45001,-13.90823,-5.95605
83.50001,-13.91650,-5.95275
83.55000,-13.92503,-5.96355
83.60001,-13.93343,-5.96058
83.65000,-13.94170,-5.96915
83.70001,-13.95010,-5.96937
83.75001,-13.95837,-5.97557
83.80000,-13.96677,-5.97658
83.85001,-13.97503,-5.98158
83.90000,-13.98317,-5.98285
83.95001,-13.99170,-5.98641
84.00001,-14.00010,-5.98795
84.05000,-14.00823,-5.99615
84.10001,-14.01650,-5.99262
84.15000,-14.02490,-5.99951
84.20001,-14.03317,-5.99945
84.25001,-14.04143,-6.00304
84.30000,-14.04997,-6.00641
84.35001,-14.05823,-6.01122
84.40000,-14.06650,-6.01323
84.45001,-14.07503,-6.01936
84.50001,-14.08357,-6.02157
84.55000,-14.09170,-6.02538
84.60001,-14.10010,-6.02543
84.65000,-14.10850,-6.03123
84.70001,-14.11663,-6.03110
84.75001,-14.12503,-6.03437
84.80000,-14.13330,-6.03501
84.85001,-14.14170,-6.03690
84.90000,-14.14997,-6.04193
84.95001,-14.15823,-6.04341
85.00001,-14.16650,-6.04614
85.05000,-14.17503,-6.04966
85.10001,-14.18317,-6.05356
85.15000,-14.19143,-6.05557
85.20001,-14.19997,-6.05936
85.25001,-14.20837,-6.06299
85.30000,-14.21650,-6.06688
85.35001,-14.22503,-6.06801
85.40000,-14.23356,-6.07277
85.45001,-14.24157,-6.07622
85.50001,-14.24983,-6.07839
85.55000,-14.25837,-6.08206
85.60001,-14.26650,-6.08566
85.65000,-14.27476,-6.08750
85.70001,-14.28317,-6.09312
85.75001,-14.29143,-6.09408
85.80000,-14.29983,-6.10128
85.85001,-14.30810,-6.10289
85.90000,-14.31650,-6.10797
85.95001,-14.32503,-6.11354
86.00001,-14.33330,-6.11730
86.05000,-14.34156,-6.12268
86.10001,-14.35010,-6.12486
86.15000,-14.35836,-6.13238
86.20001,-14.36637,-6.13411
86.25001,-14.37490,-6.13938
86.30000,-14.38343,-6.14590
86.35001,-14.39143,-6.14982
86.40000,-14.39983,-6.15146
86.45001,-14.40836,-6.16017
86.50001,-14.41650,-6.16079
86.55000,-14.42463,-6.16800
86.60001,-14.43317,-6.16586
86.65000,-14.44156,-6.17925
86.70001,-14.44983,-6.17394
86.75001,-14.45823,-6.18508
86.80000,-14.46663,-6.18277
86.85001,-14.47490,-6.19298
86.90000,-14.48330,-6.19107
86.95001,-14.49156,-6.19841
87.00001,-14.50010,-6.19804
87.05000,-14.50836,-6.20721
87.10001,-14.51650,-6.20265
87.15000,-14.52503,-6.20959
87.20001,-14.53343,-6.20930
87.25001,-14.54143,-6.21967
87.30000,-14.54970,-6.21658
87.35001,-14.55823,-6.22795
87.40000,-14.56636,-6.22891
87.45001,-14.57476,-6.23829
87.50001,-14.58343,-6.23987
87.55000,-14.59170,-6.25410
87.60001,-14.59996,-6.25253
87.65000,-14.60850,-6.26382
87.70001,-14.61690,-6.26431
87.75001,-14.62503,-6.27403
87.80000,-14.63343,-6.27577
87.85001,-14.64183,-6.28542
87.90000,-14.65010,-6.28687
87.95001,-14.65823,-6.29428
88.00001,-14.66663,-6.30088
88.05000,-14.67503,-6.30437
88.10001,-14.68330,-6.31235
88.15000,-14.69143,-6.31625
88.20001,-14.69983,-6.32200
88.25001,-14.70823,-6.32785
88.30000,-14.71650,-6.33594
88.35001,-14.72476,-6.33921
88.40000,-14.73343,-6.34840
88.45001,-14.74183,-6.35422
88.50001,-14.74996,-6.36174
88.55000,-14.75836,-6.36440
88.60001,-14.76690,-6.37351
88.65000,-14.77503,-6.37763
88.70001,-14.78316,-6.38327
88.75001,-14.79170,-6.38867
88.80000,-14.79983,-6.39446
88.85001,-14.80810,-6.40025
88.90000,-14.81650,-6.40468
88.95001,-14.82463,-6.41301
89.00001,-14.83303,-6.41602
89.05000,-14.84143,-6.42444
89.10001,-14.84983,-6.42893
89.15000,-14.85836,-6.43757
89.20001,-14.86663,-6.44404
89.25001,-14.87476,-6.44832
89.30000,-14.88343,-6.45367
89.35001,-14.89170,-6.46236
89.40000,-14.89983,-6.46635
89.45001,-14.90836,-6.47190
89.50001,-14.91676,-6.48090
89.55000,-14.92463,-6.48286
89.60001,-14.93316,-6.48858
89.65000,-14.94170,-6.49719
89.70001,-14.94983,-6.50086
89.75001,-14.95796,-6.50277
89.80000,-14.96663,-6.51110
89.85001,-14.97490,-6.51748
89.90000,-14.98316,-6.52320
89.95001,-14.99156,-6.52778
90.00001,-14.99996,-6.53631
90.05000,-15.00836,-6.54031
90.09600,-15.01596,-6.54788
