Time,Extension,Load
(sec),(mm),(N)
0.00000,0.00000,-0.00050
0.05000,-0.00107,-0.00029
0.10000,-0.00533,-0.00291
0.15000,-0.01440,-0.00443
0.20000,-0.02520,-0.00809
0.25000,-0.03560,-0.01274
0.30000,-0.04547,-0.01753
0.35000,-0.05480,-0.02073
0.40000,-0.06413,-0.02440
0.45000,-0.07320,-0.02852
0.50000,-0.08160,-0.03113
0.55000,-0.09053,-0.03398
0.60000,-0.09920,-0.03950
0.65000,-0.10747,-0.04109
0.70000,-0.11613,-0.04492
0.75000,-0.12493,-0.04827
0.80000,-0.13307,-0.05139
0.85000,-0.14147,-0.05464
0.90000,-0.15013,-0.05677
0.95000,-0.15827,-0.05960
1.00000,-0.16667,-0.06337
1.05000,-0.17507,-0.06764
1.10000,-0.18347,-0.06830
1.15000,-0.19160,-0.07429
1.20000,-0.20000,-0.07648
1.25000,-0.20827,-0.08013
1.30000,-0.21667,-0.08473
1.35000,-0.22493,-0.08904
1.40000,-0.23307,-0.09130
1.45000,-0.24173,-0.09686
1.50000,-0.25000,-0.09982
1.55000,-0.25813,-0.10456
1.60000,-0.26667,-0.10781
1.65000,-0.27520,-0.11374
1.70000,-0.28320,-0.11360
1.75000,-0.29160,-0.12090
1.80000,-0.30013,-0.12188
1.85000,-0.30840,-0.12652
1.90000,-0.31653,-0.13079
1.95000,-0.32507,-0.13573
2.00000,-0.33333,-0.14067
2.05000,-0.34147,-0.14454
2.10000,-0.34973,-0.14938
2.15000,-0.35813,-0.15641
2.20000,-0.36653,-0.15953
2.25000,-0.37480,-0.16662
2.30000,-0.38320,-0.17189
2.35000,-0.39160,-0.17781
2.40000,-0.40000,-0.18061
2.45000,-0.40813,-0.19015
2.50000,-0.41667,-0.19214
2.55000,-0.42520,-0.19989
2.60000,-0.43333,-0.20560
2.65000,-0.44147,-0.21153
2.70000,-0.45013,-0.21672
2.75000,-0.45827,-0.22335
2.80000,-0.46627,-0.22903
2.85000,-0.47480,-0.23400
2.90000,-0.48333,-0.24059
2.95000,-0.49133,-0.24742
3.00000,-0.49973,-0.25235
3.05000,-0.50827,-0.25800
3.10000,-0.51667,-0.26776
3.15000,-0.52493,-0.27324
3.20000,-0.53347,-0.27880
3.25000,-0.54173,-0.28720
3.30000,-0.55000,-0.29334
3.35000,-0.55840,-0.30138
3.40000,-0.56680,-0.30743
3.45000,-0.57520,-0.31594
3.50000,-0.58347,-0.32259
3.55000,-0.59160,-0.33063
3.60000,-0.60013,-0.33760
3.65000,-0.60840,-0.34685
3.70000,-0.61653,-0.35286
3.75000,-0.62507,-0.36174
3.80000,-0.63347,-0.37004
3.85000,-0.64147,-0.37839
3.90000,-0.65000,-0.38593
3.95000,-0.65853,-0.39558
4.00000,-0.66653,-0.40335
4.05000,-0.67493,-0.41154
4.10000,-0.68346,-0.42042
4.15000,-0.69173,-0.42884
4.20000,-0.70000,-0.43759
4.25000,-0.70853,-0.44600
4.30000,-0.71680,-0.45609
4.35000,-0.72506,-0.46258
4.40000,-0.73333,-0.47474
4.45000,-0.74160,-0.48118
4.50000,-0.75000,-0.49335
4.55000,-0.75826,-0.49887
4.60000,-0.76653,-0.51239
4.65000,-0.77506,-0.51931
4.70000,-0.78346,-0.52986
4.75000,-0.79146,-0.53905
4.80000,-0.80000,-0.54864
4.85000,-0.80840,-0.55755
4.90000,-0.81653,-0.56959
4.95000,-0.82493,-0.57576
5.00000,-0.83346,-0.58925
5.05000,-0.84160,-0.59511
5.10000,-0.84986,-0.60934
5.15000,-0.85826,-0.61539
5.20000,-0.86653,-0.62955
5.25000,-0.87480,-0.63578
5.30000,-0.88320,-0.64984
5.35000,-0.89133,-0.65738
5.40000,-0.89973,-0.67033
5.45000,-0.90813,-0.67881
5.50000,-0.91640,-0.69179
5.55000,-0.92493,-0.70097
5.60000,-0.93333,-0.71551
5.65000,-0.94146,-0.72248
5.70000,-0.94973,-0.73664
5.75000,-0.95826,-0.74584
5.80000,-0.96653,-0.75934
5.85000,-0.97493,-0.76828
5.90000,-0.98346,-0.78230
5.95000,-0.99160,-0.79194
6.00000,-0.99986,-0.80461
6.05000,-1.00826,-0.81363
6.10000,-1.01666,-0.82841
6.15000,-1.02466,-0.83658
6.20000,-1.03320,-0.85116
6.25000,-1.04173,-0.86116
6.30000,-1.05000,-0.87543
6.35000,-1.05826,-0.88424
6.40000,-1.06680,-0.89938
6.45000,-1.07506,-0.90898
6.50000,-1.08346,-0.92271
6.55000,-1.09186,-0.93287
6.60000,-1.10013,-0.94793
6.65000,-1.10853,-0.95626
6.70000,-1.11666,-0.97159
6.75000,-1.12480,-0.98031
6.80000,-1.13333,-0.99546
6.85000,-1.14160,-1.00528
6.90000,-1.14973,-1.01843
6.95000,-1.15840,-1.03087
7.00000,-1.16666,-1.04351
7.05000,-1.17480,-1.05329
7.10000,-1.18333,-1.06933
7.15000,-1.19186,-1.07911
7.20000,-1.20000,-1.09285
7.25000,-1.20826,-1.10356
7.30000,-1.21693,-1.11805
7.35000,-1.22493,-1.12779
7.40000,-1.23320,-1.14227
7.45000,-1.24173,-1.15267
7.50000,-1.25000,-1.16751
7.55000,-1.25826,-1.17712
7.60000,-1.26666,-1.19227
7.65000,-1.27493,-1.20252
7.70000,-1.28333,-1.21646
7.75000,-1.29160,-1.22728
7.80000,-1.29973,-1.24139
7.85000,-1.30840,-1.25172
7.90000,-1.31666,-1.26630
7.95000,-1.32480,-1.27722
8.00000,-1.33333,-1.29040
8.05000,-1.34186,-1.30119
8.10000,-1.34986,-1.31721
8.15000,-1.35826,-1.32494
8.20000,-1.36680,-1.34051
8.25000,-1.37493,-1.35177
8.30000,-1.38320,-1.36458
8.35000,-1.39160,-1.37632
8.40000,-1.39986,-1.39018
8.45000,-1.40813,-1.40062
8.50000,-1.41653,-1.41519
8.55000,-1.42480,-1.42589
8.60000,-1.43306,-1.44015
8.65000,-1.44146,-1.45177
8.70000,-1.44986,-1.46460
8.75000,-1.45826,-1.47695
8.80000,-1.46666,-1.49043
8.85000,-1.47493,-1.50340
8.90000,-1.48333,-1.51385
8.95000,-1.49173,-1.52832
9.00000,-1.49986,-1.54049
9.05000,-1.50826,-1.55099
9.10000,-1.51680,-1.56578
9.15000,-1.52493,-1.57600
9.20000,-1.53320,-1.58829
9.25000,-1.54173,-1.59911
9.30000,-1.55000,-1.60304
9.35000,-1.55813,-1.57776
9.40000,-1.56640,-1.58873
9.45000,-1.57506,-1.60360
9.50000,-1.58333,-1.61551
9.55000,-1.59160,-1.63013
9.60000,-1.60013,-1.64377
9.65000,-1.60840,-1.65522
9.70000,-1.61666,-1.66720
9.75000,-1.62493,-1.67834
9.80000,-1.63346,-1.68869
9.85000,-1.64173,-1.70010
9.90000,-1.65000,-1.71001
9.95000,-1.65826,-1.72260
10.00000,-1.66680,-1.73442
10.05000,-1.67493,-1.74747
10.10000,-1.68306,-1.75962
10.15000,-1.69173,-1.76886
10.20000,-1.70000,-1.78205
10.25000,-1.70813,-1.79159
10.30000,-1.71666,-1.80122
10.35000,-1.72520,-1.81255
10.40000,-1.73320,-1.82181
10.45000,-1.74160,-1.83221
10.50000,-1.75026,-1.84260
10.55000,-1.75840,-1.85235
10.60000,-1.76666,-1.86232
10.65000,-1.77506,-1.87209
10.70000,-1.78333,-1.88585
10.75000,-1.79160,-1.89450
10.80000,-1.79986,-1.90889
10.85000,-1.80826,-1.91740
10.90000,-1.81666,-1.92879
10.95000,-1.82493,-1.93618
11.00000,-1.83306,-1.94479
11.05000,-1.84173,-1.95358
11.10000,-1.85013,-1.95991
11.15000,-1.85826,-1.97012
11.20000,-1.86680,-1.97712
11.25000,-1.87520,-1.98864
11.30000,-1.88333,-1.99389
11.35000,-1.89160,-1.99479
11.40000,-1.90026,-2.00614
11.45000,-1.90826,-2.00799
11.50000,-1.91653,-2.01357
11.55000,-1.92493,-2.01415
11.60000,-1.93333,-2.03266
11.65000,-1.94133,-2.03454
11.70000,-1.94973,-2.05779
11.75000,-1.95813,-2.06911
11.80000,-1.96640,-2.07684
11.85000,-1.97480,-2.10889
11.90000,-1.98320,-2.10311
11.95000,-1.99160,-2.13293
12.00000,-2.00000,-2.13536
12.05000,-2.00826,-2.15657
12.10000,-2.01666,-2.16180
12.15000,-2.02520,-2.18430
12.20000,-2.03333,-2.18502
12.25000,-2.04160,-2.21149
12.30000,-2.05013,-2.20389
12.35000,-2.05826,-2.21859
12.40000,-2.06653,-2.20651
12.45000,-2.07506,-2.23432
12.50000,-2.08333,-2.22675
12.55000,-2.09133,-2.24767
12.60000,-2.09973,-2.24662
12.65000,-2.10839,-2.26421
12.70000,-2.11666,-2.25982
12.75000,-2.12493,-2.27095
12.80000,-2.13359,-2.27282
12.85000,-2.14173,-2.27905
12.90000,-2.14999,-2.27994
12.95000,-2.15839,-2.28953
13.00000,-2.16666,-2.29525
13.05000,-2.17506,-2.31083
13.10000,-2.18333,-2.32100
13.15000,-2.19159,-2.33528
13.20000,-2.20013,-2.34778
13.25000,-2.20839,-2.36237
13.30000,-2.21653,-2.37159
13.35000,-2.22506,-2.38321
13.40000,-2.23333,-2.39330
13.45000,-2.24146,-2.40318
13.50000,-2.25013,-2.41373
13.55000,-2.25853,-2.42358
13.60000,-2.26666,-2.43559
13.65000,-2.27506,-2.44316
13.70000,-2.28346,-2.45492
13.75000,-2.29159,-2.46236
13.80000,-2.29986,-2.47435
13.85000,-2.30826,-2.48141
13.90000,-2.31666,-2.49419
13.95000,-2.32493,-2.50551
14.00000,-2.33319,-2.51779
14.05000,-2.34146,-2.52870
14.10000,-2.34986,-2.54206
14.15000,-2.35813,-2.55308
14.20000,-2.36639,-2.56674
14.25000,-2.37493,-2.57570
14.30000,-2.38333,-2.59219
14.35000,-2.39133,-2.59978
14.40000,-2.39986,-2.61544
14.45000,-2.40839,-2.62155
14.50000,-2.41653,-2.63970
14.55000,-2.42506,-2.64553
14.60000,-2.43359,-2.66206
14.65000,-2.44159,-2.66972
14.70000,-2.44986,-2.68374
14.75000,-2.45826,-2.69072
14.80000,-2.46666,-2.70516
14.85000,-2.47493,-2.71267
14.90000,-2.48333,-2.72753
14.95000,-2.49159,-2.73385
15.00000,-2.49986,-2.74894
15.05000,-2.50813,-2.75393
15.10000,-2.51639,-2.77061
15.15000,-2.52493,-2.77706
15.20000,-2.53333,-2.79078
15.25000,-2.54159,-2.80019
15.30000,-2.54999,-2.81128
15.35000,-2.55853,-2.81975
15.40000,-2.56666,-2.83577
15.45000,-2.57493,-2.82837
15.50000,-2.58359,-2.84940
15.55000,-2.59173,-2.84923
15.60000,-2.59986,-2.86647
15.65000,-2.60839,-2.87335
15.70000,-2.61666,-2.89095
15.75000,-2.62466,-2.89251
15.80000,-2.63319,-2.91315
15.85000,-2.64173,-2.91723
15.90000,-2.64999,-2.93116
15.95000,-2.65826,-2.94176
16.00000,-2.66679,-2.95303
16.05000,-2.67506,-2.96111
16.10000,-2.68333,-2.97147
16.15000,-2.69173,-2.98202
16.20000,-2.70013,-2.99018
16.25000,-2.70853,-3.00143
16.30000,-2.71679,-3.00820
16.35000,-2.72493,-3.02027
16.40000,-2.73346,-3.02509
16.45000,-2.74173,-3.03746
16.50000,-2.74973,-3.04256
16.55000,-2.75826,-3.05361
16.60000,-2.76653,-3.06019
16.65000,-2.77466,-3.07115
16.70000,-2.78333,-3.07674
16.75000,-2.79173,-3.08903
16.80000,-2.79986,-3.09321
16.85000,-2.80826,-3.10342
16.90000,-2.81693,-3.10759
16.95000,-2.82506,-3.11925
17.00000,-2.83346,-3.12402
17.05000,-2.84199,-3.13609
17.10000,-2.85026,-3.13980
17.15000,-2.85839,-3.15000
17.20000,-2.86666,-3.15632
17.25000,-2.87493,-3.16522
17.30000,-2.88333,-3.17324
17.35000,-2.89159,-3.18161
17.40000,-2.89973,-3.18741
17.45000,-2.90839,-3.19519
17.50000,-2.91666,-3.20405
17.55000,-2.92493,-3.21154
17.60000,-2.93333,-3.21935
17.65000,-2.94186,-3.22643
17.70000,-2.94986,-3.23485
17.75000,-2.95813,-3.23967
17.80000,-2.96679,-3.24978
17.85000,-2.97493,-3.25631
17.90000,-2.98319,-3.26527
17.95000,-2.99159,-3.26957
18.00000,-2.99999,-3.28178
18.05000,-3.00813,-3.28289
18.10000,-3.01639,-3.29343
18.15000,-3.02479,-3.29762
18.20000,-3.03306,-3.30731
18.25000,-3.04146,-3.31151
18.30000,-3.04986,-3.32219
18.35000,-3.05826,-3.32640
18.40000,-3.06666,-3.33716
18.45000,-3.07479,-3.34042
18.50000,-3.08346,-3.34819
18.55000,-3.09186,-3.35495
18.60000,-3.09986,-3.36165
18.65000,-3.10813,-3.36918
18.70000,-3.11666,-3.37137
18.75000,-3.12493,-3.38111
18.80000,-3.13306,-3.38440
18.85000,-3.14173,-3.39488
18.90000,-3.14999,-3.39828
18.95000,-3.15813,-3.40883
19.00000,-3.16639,-3.41063
19.05000,-3.17506,-3.42144
19.10000,-3.18333,-3.42425
19.15000,-3.19159,-3.43377
19.20000,-3.20013,-3.43715
19.25000,-3.20839,-3.44618
19.30000,-3.21666,-3.44711
19.35000,-3.22506,-3.45742
19.40000,-3.23359,-3.45851
19.45000,-3.24173,-3.46990
19.50000,-3.25013,-3.47090
19.55000,-3.25826,-3.48146
19.60000,-3.26666,-3.48435
19.65000,-3.27493,-3.49333
19.70000,-3.28306,-3.49505
19.75000,-3.29173,-3.50441
19.80000,-3.29999,-3.51049
19.85000,-3.30813,-3.51458
19.90000,-3.31666,-3.52275
19.95000,-3.32519,-3.52938
20.00000,-3.33319,-3.53355
20.05000,-3.34159,-3.54036
20.10000,-3.35013,-3.54658
20.15000,-3.35839,-3.55362
20.20000,-3.36666,-3.55840
20.25000,-3.37506,-3.56682
20.30000,-3.38346,-3.57364
20.35000,-3.39159,-3.57932
20.40000,-3.39986,-3.58812
20.45000,-3.40826,-3.59343
20.50000,-3.41666,-3.60086
20.55000,-3.42493,-3.60665
20.60000,-3.43306,-3.61398
20.65000,-3.44172,-3.61849
20.70000,-3.45012,-3.62666
20.75000,-3.45812,-3.63189
20.80000,-3.46666,-3.63729
20.85000,-3.47519,-3.64390
20.90000,-3.48332,-3.64980
20.95000,-3.49159,-3.65421
21.00000,-3.50012,-3.65993
21.05000,-3.50826,-3.66580
21.10000,-3.51652,-3.66937
21.15000,-3.52492,-3.67613
21.20000,-3.53319,-3.67904
21.25000,-3.54146,-3.68516
21.30000,-3.54972,-3.68909
21.35000,-3.55812,-3.69444
21.40000,-3.56639,-3.69787
21.45000,-3.57479,-3.70536
21.50000,-3.58319,-3.70783
21.55000,-3.59172,-3.71371
21.60000,-3.60012,-3.71885
21.65000,-3.60826,-3.72254
21.70000,-3.61666,-3.72813
21.75000,-3.62506,-3.73041
21.80000,-3.63332,-3.73890
21.85000,-3.64159,-3.73957
21.90000,-3.65026,-3.74675
21.95000,-3.65839,-3.75052
22.00000,-3.66652,-3.75437
22.05000,-3.67492,-3.75769
22.10000,-3.68332,-3.76406
22.15000,-3.69132,-3.76633
22.20000,-3.69972,-3.77225
22.25000,-3.70839,-3.77568
22.30000,-3.71652,-3.78171
22.35000,-3.72479,-3.78517
22.40000,-3.73346,-3.79080
22.45000,-3.74172,-3.79523
22.50000,-3.75012,-3.79901
22.55000,-3.75839,-3.80470
22.60000,-3.76679,-3.80740
22.65000,-3.77506,-3.81341
22.70000,-3.78332,-3.81584
22.75000,-3.79146,-3.82026
22.80000,-3.79999,-3.82421
22.85000,-3.80826,-3.82915
22.90000,-3.81652,-3.83185
22.95000,-3.82506,-3.83666
23.00000,-3.83332,-3.84035
23.05000,-3.84146,-3.84373
23.10000,-3.84999,-3.84742
23.15000,-3.85866,-3.85345
23.20000,-3.86652,-3.85389
23.25000,-3.87492,-3.85951
23.30000,-3.88359,-3.85962
23.35000,-3.89172,-3.86750
23.40000,-3.90012,-3.86748
23.45000,-3.90852,-3.87174
23.50000,-3.91679,-3.87469
23.55000,-3.92492,-3.87984
23.60000,-3.93332,-3.87775
23.65000,-3.94159,-3.88669
23.70000,-3.94999,-3.88443
23.75000,-3.95826,-3.89109
23.80000,-3.96639,-3.89053
23.85000,-3.97506,-3.89559
23.90000,-3.98332,-3.89647
23.95000,-3.99159,-3.90052
24.00000,-4.00012,-3.90162
24.05000,-4.00852,-3.90457
24.10000,-4.01666,-3.90502
24.15000,-4.02492,-3.90855
24.20000,-4.03359,-3.90914
24.25000,-4.04172,-3.91344
24.30000,-4.04999,-3.91368
24.35000,-4.05826,-3.91495
24.40000,-4.06666,-3.91681
24.45000,-4.07479,-3.92154
24.50000,-4.08319,-3.91865
24.55000,-4.09146,-3.92399
24.60000,-4.09972,-3.92430
24.65000,-4.10812,-3.92572
24.70000,-4.11652,-3.92877
24.75000,-4.12492,-3.92991
24.80000,-4.13332,-3.93331
24.85000,-4.14159,-3.93278
24.90000,-4.14999,-3.93748
24.95000,-4.15839,-3.93623
25.00000,-4.16652,-3.94166
25.05000,-4.17492,-3.93979
25.10000,-4.18346,-3.94307
25.15000,-4.19159,-3.94487
25.20000,-4.19972,-3.94509
25.25000,-4.20826,-3.94538
25.30000,-4.21666,-3.94679
25.35000,-4.22479,-3.94884
25.40000,-4.23319,-3.94938
25.45000,-4.24186,-3.94934
25.50000,-4.24999,-3.95262
25.55000,-4.25826,-3.95410
25.60000,-4.26679,-3.95275
25.65000,-4.27506,-3.95742
25.70000,-4.28332,-3.95502
25.75000,-4.29172,-3.95904
25.80000,-4.30012,-3.95817
25.85000,-4.30839,-3.96234
25.90000,-4.31679,-3.96016
25.95000,-4.32492,-3.96481
26.00000,-4.33346,-3.96290
26.05000,-4.34172,-3.96778
26.10000,-4.34986,-3.96712
26.15000,-4.35839,-3.96809
26.20000,-4.36652,-3.97158
26.25000,-4.37466,-3.97199
26.30000,-4.38332,-3.97472
26.35000,-4.39186,-3.97896
26.40000,-4.39999,-3.97994
26.45000,-4.40839,-3.98138
26.50000,-4.41692,-3.98625
26.55000,-4.42492,-3.98743
26.60000,-4.43319,-3.98662
26.65000,-4.44159,-3.99399
26.70000,-4.44999,-3.99005
26.75000,-4.45812,-3.99624
26.80000,-4.46652,-3.99536
26.85000,-4.47492,-4.00065
26.90000,-4.48332,-3.99837
26.95000,-4.49146,-4.00750
27.00000,-4.49959,-4.00345
27.05000,-4.50826,-4.00984
27.10000,-4.51666,-4.01049
27.15000,-4.52479,-4.01469
27.20000,-4.53332,-4.01622
27.25000,-4.54186,-4.01884
27.30000,-4.54999,-4.02329
27.35000,-4.55826,-4.02382
27.40000,-4.56692,-4.02763
27.45000,-4.57506,-4.03094
27.50000,-4.58319,-4.03368
27.55000,-4.59159,-4.03352
27.60000,-4.59999,-4.04025
27.65000,-4.60826,-4.04064
27.70000,-4.61652,-4.04472
27.75000,-4.62492,-4.04496
27.80000,-4.63306,-4.05158
27.85000,-4.64146,-4.05050
27.90000,-4.64986,-4.05790
27.95000,-4.65839,-4.05577
28.00000,-4.66666,-4.06731
28.05000,-4.67492,-4.05810
28.10000,-4.68332,-4.07333
28.15000,-4.69172,-4.06553
28.20000,-4.69986,-4.07818
28.25000,-4.70826,-4.07168
28.30000,-4.71679,-4.08211
28.35000,-4.72492,-4.08170
28.40000,-4.73319,-4.08791
28.45000,-4.74159,-4.08798
28.50000,-4.74999,-4.09391
28.55000,-4.75812,-4.09725
28.60000,-4.76639,-4.10025
28.65000,-4.77506,-4.10371
28.70000,-4.78332,-4.10884
28.75000,-4.79159,-4.11166
28.80000,-4.80012,-4.11323
28.85000,-4.80839,-4.12013
28.90000,-4.81666,-4.11875
28.95000,-4.82506,-4.12980
29.00000,-4.83332,-4.12415
29.05000,-4.84172,-4.13360
29.10000,-4.84999,-4.13332
29.15000,-4.85825,-4.14112
29.20000,-4.86679,-4.13851
29.25000,-4.87492,-4.14542
29.30000,-4.88305,-4.14757
29.35000,-4.89172,-4.14744
29.40000,-4.89999,-4.15580
29.45000,-4.90812,-4.15472
29.50000,-4.91665,-4.16095
29.55000,-4.92519,-4.16197
29.60000,-4.93332,-4.16765
29.65000,-4.94159,-4.16446
29.70000,-4.95025,-4.17890
29.75000,-4.95839,-4.16858
29.80000,-4.96665,-4.18330
29.85000,-4.97505,-4.17501
29.90000,-4.98345,-4.19149
29.95000,-4.99172,-4.17746
30.00000,-4.99999,-4.19931
30.05000,-5.00839,-4.18160
30.10000,-5.01679,-4.20625
30.15000,-5.02492,-4.19130
30.20000,-5.03305,-4.20423
30.25000,-5.04172,-4.19855
30.30000,-5.04999,-4.21112
30.35000,-5.05825,-4.20675
30.40000,-5.06665,-4.21367
30.45000,-5.07519,-4.21298
30.50000,-5.08332,-4.22264
30.55000,-5.09159,-4.21670
30.60000,-5.10012,-4.22605
30.65000,-5.10825,-4.22551
30.70000,-5.11639,-4.23017
30.75000,-5.12479,-4.22986
30.80000,-5.13319,-4.23723
30.85000,-5.14145,-4.23607
30.90000,-5.14985,-4.24161
30.95000,-5.15812,-4.24418
31.00000,-5.16639,-4.24777
31.05000,-5.17479,-4.24680
31.10000,-5.18319,-4.25642
31.15000,-5.19159,-4.25216
31.20000,-5.19999,-4.25983
31.25000,-5.20825,-4.25931
31.30000,-5.21665,-4.26535
31.35000,-5.22519,-4.25862
31.40000,-5.23319,-4.27321
31.45000,-5.24159,-4.26068
31.50000,-5.25012,-4.27474
31.55000,-5.25825,-4.26321
31.60000,-5.26639,-4.27899
31.65000,-5.27492,-4.26653
31.70000,-5.28332,-4.28279
31.75000,-5.29132,-4.27174
31.80000,-5.29972,-4.28488
31.85000,-5.30825,-4.27675
31.90000,-5.31652,-4.29092
31.95000,-5.32492,-4.28041
32.00000,-5.33332,-4.29548
32.05000,-5.34172,-4.28666
32.10000,-5.34999,-4.29501
32.15000,-5.35839,-4.29442
32.20000,-5.36665,-4.29912
32.25000,-5.37505,-4.29750
32.30000,-5.38345,-4.30182
32.35000,-5.39159,-4.30348
32.40000,-5.40012,-4.30524
32.45000,-5.40839,-4.30618
32.50000,-5.41652,-4.30986
32.55000,-5.42505,-4.30940
32.60000,-5.43332,-4.31443
32.65000,-5.44145,-4.31354
32.70000,-5.44999,-4.31609
32.75000,-5.45865,-4.32112
32.80000,-5.46665,-4.31988
32.85000,-5.47492,-4.32214
32.90000,-5.48359,-4.32116
32.95000,-5.49172,-4.32367
33.00000,-5.49999,-4.32814
33.05000,-5.50839,-4.32568
33.10000,-5.51679,-4.32873
33.15000,-5.52505,-4.33094
33.20000,-5.53332,-4.33469
33.25000,-5.54159,-4.33038
33.30000,-5.54999,-4.33955
33.35000,-5.55825,-4.33739
33.40000,-5.56652,-4.34115
33.45000,-5.57505,-4.34084
33.50000,-5.58345,-4.34793
33.55000,-5.59145,-4.34513
33.60000,-5.59999,-4.34910
33.65000,-5.60852,-4.35095
33.70000,-5.61665,-4.35303
33.75000,-5.62492,-4.35203
33.80000,-5.63345,-4.35623
33.85000,-5.64172,-4.35595
33.90000,-5.64985,-4.35905
33.95000,-5.65825,-4.36057
34.00000,-5.66652,-4.35841
34.05000,-5.67479,-4.36540
34.10000,-5.68305,-4.36225
34.15000,-5.69132,-4.36783
34.20000,-5.69972,-4.36509
34.25000,-5.70812,-4.37068
34.30000,-5.71652,-4.36986
34.35000,-5.72492,-4.37257
34.40000,-5.73332,-4.37424
34.45000,-5.74159,-4.37652
34.50000,-5.74999,-4.37454
34.55000,-5.75839,-4.37988
34.60000,-5.76652,-4.37981
34.65000,-5.77479,-4.37975
34.70000,-5.78345,-4.38459
34.75000,-5.79159,-4.38483
34.80000,-5.79985,-4.38795
34.85000,-5.80839,-4.38696
34.90000,-5.81665,-4.39498
34.95000,-5.82479,-4.38980
35.00000,-5.83319,-4.39752
35.05000,-5.84172,-4.39648
35.10000,-5.84999,-4.40172
35.15000,-5.85812,-4.40036
35.20000,-5.86679,-4.40883
35.25000,-5.87505,-4.40506
35.30000,-5.88332,-4.41282
35.35000,-5.89172,-4.41038
35.40000,-5.90012,-4.41671
35.45000,-5.90852,-4.41531
35.50000,-5.91665,-4.42110
35.55000,-5.92492,-4.42060
35.60000,-5.93345,-4.42488
35.65000,-5.94172,-4.42572
35.70000,-5.94972,-4.42952
35.75000,-5.95839,-4.42647
35.80000,-5.96665,-4.43522
35.85000,-5.97479,-4.43066
35.90000,-5.98332,-4.43793
35.95000,-5.99185,-4.43775
36.00000,-5.99999,-4.44133
36.05000,-6.00825,-4.44124
36.10000,-6.01679,-4.44473
36.15000,-6.02505,-4.44784
36.20000,-6.03332,-4.44752
36.25000,-6.04172,-4.45119
36.30000,-6.05012,-4.45181
36.35000,-6.05839,-4.45392
36.40000,-6.06665,-4.45374
36.45000,-6.07492,-4.45939
36.50000,-6.08345,-4.45564
36.55000,-6.09159,-4.46332
36.60000,-6.09972,-4.46031
36.65000,-6.10839,-4.46388
36.70000,-6.11665,-4.46378
36.75000,-6.12479,-4.46905
36.80000,-6.13332,-4.46602
36.85000,-6.14172,-4.47163
36.90000,-6.14985,-4.47037
36.95000,-6.15825,-4.47424
37.00000,-6.16679,-4.47199
37.05000,-6.17492,-4.47903
37.10000,-6.18319,-4.47344
37.15000,-6.19158,-4.48165
37.20000,-6.19985,-4.47774
37.25000,-6.20812,-4.48372
37.30000,-6.21652,-4.48068
37.35000,-6.22479,-4.48557
37.40000,-6.23318,-4.48561
37.45000,-6.24145,-4.48970
37.50000,-6.24985,-4.48775
37.55000,-6.25838,-4.49421
37.60000,-6.26665,-4.49294
37.65000,-6.27492,-4.49640
37.70000,-6.28332,-4.49624
37.75000,-6.29172,-4.49876
37.80000,-6.29985,-4.50077
37.85000,-6.30825,-4.50184
37.90000,-6.31678,-4.50376
37.95000,-6.32505,-4.50771
38.00000,-6.33318,-4.50506
38.05000,-6.34158,-4.50911
38.10000,-6.34998,-4.50972
38.15000,-6.35798,-4.51538
38.20000,-6.36638,-4.51180
38.25000,-6.37505,-4.52023
38.30000,-6.38332,-4.51735
38.35000,-6.39145,-4.52352
38.40000,-6.40012,-4.52096
38.45000,-6.40838,-4.52750
38.50000,-6.41665,-4.52805
38.55000,-6.42505,-4.53016
38.60000,-6.43345,-4.53176
38.65000,-6.44172,-4.53412
38.70000,-6.44998,-4.53613
38.75000,-6.45838,-4.53836
38.80000,-6.46692,-4.54096
38.85000,-6.47505,-4.54306
38.90000,-6.48318,-4.54539
38.95000,-6.49172,-4.54583
39.00000,-6.50012,-4.54961
39.05000,-6.50812,-4.55100
39.10000,-6.51665,-4.55363
39.15000,-6.52518,-4.55355
39.20000,-6.53332,-4.55970
39.25000,-6.54172,-4.55742
39.30000,-6.55025,-4.56298
39.35000,-6.55838,-4.56392
39.40000,-6.56665,-4.56696
39.45000,-6.57505,-4.56725
39.50000,-6.58332,-4.56891
39.55000,-6.59158,-4.57764
39.60000,-6.59998,-4.57204
39.65000,-6.60838,-4.58006
39.70000,-6.61665,-4.57765
39.75000,-6.62478,-4.58226
39.80000,-6.63305,-4.58280
39.85000,-6.64172,-4.58644
39.90000,-6.64998,-4.58812
39.95000,-6.65825,-4.59052
40.00000,-6.66678,-4.59356
40.05000,-6.67518,-4.59514
40.10000,-6.68318,-4.59653
40.15000,-6.69158,-4.59993
40.20000,-6.70012,-4.60028
40.25000,-6.70825,-4.60352
40.30000,-6.71652,-4.60271
40.35000,-6.72492,-4.60732
40.40000,-6.73318,-4.60748
40.45000,-6.74145,-4.60862
40.50000,-6.74985,-4.61174
40.55000,-6.75825,-4.61196
40.60000,-6.76652,-4.61471
40.65000,-6.77478,-4.61456
40.70000,-6.78318,-4.62056
40.75000,-6.79172,-4.61772
40.80000,-6.80012,-4.61993
40.85000,-6.80825,-4.61719
40.90000,-6.81665,-4.62196
40.95000,-6.82518,-4.62290
41.00000,-6.83318,-4.62482
41.05000,-6.84158,-4.62647
41.10000,-6.85012,-4.62764
41.15000,-6.85825,-4.62909
41.20000,-6.86638,-4.63060
41.25000,-6.87492,-4.63115
41.30000,-6.88332,-4.63686
41.35000,-6.89145,-4.63563
41.40000,-6.89972,-4.63849
41.45000,-6.90838,-4.64042
41.50000,-6.91665,-4.64450
41.55000,-6.92492,-4.64607
41.60000,-6.93345,-4.64957
41.65000,-6.94185,-4.65096
41.70000,-6.95012,-4.65414
41.75000,-6.95852,-4.65626
41.80000,-6.96678,-4.65833
41.85000,-6.97505,-4.66027
41.90000,-6.98345,-4.66364
41.95000,-6.99158,-4.66308
42.00000,-7.00012,-4.66584
42.05000,-7.00838,-4.66858
42.10000,-7.01638,-4.67046
42.15000,-7.02492,-4.67177
42.20000,-7.03332,-4.67435
42.25000,-7.04145,-4.67742
42.30000,-7.04998,-4.67866
42.35000,-7.05852,-4.68361
42.40000,-7.06652,-4.68393
42.45000,-7.07492,-4.68633
42.50000,-7.08358,-4.68780
42.55000,-7.09172,-4.69131
42.60000,-7.09998,-4.69193
42.65000,-7.10838,-4.69567
42.70000,-7.11665,-4.69638
42.75000,-7.12492,-4.69971
42.80000,-7.13318,-4.70023
42.85000,-7.14158,-4.70345
42.90000,-7.14998,-4.70356
42.95000,-7.15825,-4.70680
43.00000,-7.16638,-4.70719
43.05000,-7.17505,-4.71024
43.10000,-7.18318,-4.71234
43.15000,-7.19132,-4.71417
43.20000,-7.19998,-4.71738
43.25000,-7.20852,-4.72073
43.30000,-7.21652,-4.71593
43.35000,-7.22492,-4.72918
43.40000,-7.23345,-4.72135
43.45000,-7.24158,-4.72918
43.50000,-7.24985,-4.72572
43.55000,-7.25838,-4.73299
43.60000,-7.26665,-4.72990
43.65000,-7.27478,-4.73591
43.70000,-7.28318,-4.73407
43.75000,-7.29145,-4.74142
43.80000,-7.29972,-4.73619
43.85000,-7.30812,-4.74569
43.90000,-7.31652,-4.74249
43.95000,-7.32505,-4.75128
44.00000,-7.33345,-4.74795
44.05000,-7.34158,-4.75556
44.10000,-7.34998,-4.75284
44.15000,-7.35852,-4.75917
44.20000,-7.36665,-4.75863
44.25000,-7.37492,-4.76113
44.30000,-7.38345,-4.76358
44.35000,-7.39158,-4.76813
44.40000,-7.39972,-4.76633
44.45000,-7.40825,-4.76970
44.50000,-7.41665,-4.77209
44.55000,-7.42478,-4.77367
44.60000,-7.43318,-4.77354
44.65000,-7.44172,-4.77791
44.70000,-7.44998,-4.78103
44.75000,-7.45825,-4.77771
44.80000,-7.46678,-4.78665
44.85000,-7.47505,-4.78276
44.90000,-7.48332,-4.78869
44.95000,-7.49172,-4.78631
45.00000,-7.50011,-4.79298
45.05000,-7.50838,-4.79114
45.10000,-7.51665,-4.79656
45.15000,-7.52492,-4.79149
45.20000,-7.53332,-4.80168
45.25000,-7.54171,-4.79759
45.30000,-7.54971,-4.80033
45.35000,-7.55838,-4.79923
45.40000,-7.56678,-4.80688
45.45000,-7.57478,-4.80280
45.50000,-7.58345,-4.80558
45.55000,-7.59185,-4.80644
45.60000,-7.59985,-4.80850
45.65000,-7.60825,-4.80884
45.70000,-7.61678,-4.81097
45.75000,-7.62505,-4.81043
45.80000,-7.63345,-4.81252
45.85000,-7.64185,-4.81302
45.90000,-7.65011,-4.81538
45.95000,-7.65838,-4.81249
46.00000,-7.66665,-4.81586
46.05000,-7.67491,-4.81663
46.10000,-7.68318,-4.81633
46.15000,-7.69158,-4.81330
46.20000,-7.69971,-4.81569
46.25000,-7.70825,-4.81071
46.30000,-7.71665,-4.81768
46.35000,-7.72491,-4.80754
46.40000,-7.73345,-4.82035
46.45000,-7.74185,-4.81484
46.50000,-7.74985,-4.81320
46.55000,-7.75811,-4.81949
46.60000,-7.76678,-4.81447
46.65000,-7.77491,-4.82600
46.70000,-7.78331,-4.81602
46.75000,-7.79171,-4.82531
46.80000,-7.79998,-4.82741
46.85000,-7.80811,-4.82255
46.90000,-7.81651,-4.82928
46.95000,-7.82491,-4.82678
47.00000,-7.83318,-4.83174
47.05000,-7.84145,-4.83184
47.10000,-7.84985,-4.83431
47.15000,-7.85825,-4.83298
47.20000,-7.86651,-4.83979
47.25000,-7.87478,-4.83741
47.30000,-7.88331,-4.84247
47.35000,-7.89171,-4.84005
47.40000,-7.89985,-4.84853
47.45000,-7.90825,-4.84714
47.50000,-7.91678,-4.84965
47.55000,-7.92491,-4.85421
47.60000,-7.93318,-4.85229
47.65000,-7.94171,-4.85426
47.70000,-7.94998,-4.84899
47.75000,-7.95811,-4.85326
47.80000,-7.96638,-4.85489
47.85000,-7.97491,-4.85794
47.90000,-7.98305,-4.86122
47.95000,-7.99145,-4.87270
48.00000,-7.99998,-4.85648
48.05000,-8.00825,-4.88110
48.10000,-8.01665,-4.85184
48.15000,-8.02491,-4.90234
48.20000,-8.03331,-4.86372
48.25000,-8.04171,-4.89756
48.30000,-8.05011,-4.86909
48.35000,-8.05825,-4.90393
48.40000,-8.06678,-4.87649
48.45000,-8.07505,-4.90588
48.50000,-8.08305,-4.88710
48.55000,-8.09171,-4.90381
48.60000,-8.09998,-4.89713
48.65000,-8.10811,-4.90728
48.70000,-8.11665,-4.90143
48.75000,-8.12518,-4.91518
48.80000,-8.13318,-4.90868
48.85000,-8.14158,-4.91226
48.90000,-8.15025,-4.91857
48.95000,-8.15825,-4.91648
49.00000,-8.16665,-4.92415
49.05000,-8.17505,-4.91979
49.10000,-8.18331,-4.92962
49.15000,-8.19158,-4.92284
49.20000,-8.19998,-4.93106
49.25000,-8.20838,-4.93176
49.30000,-8.21665,-4.93209
49.35000,-8.22491,-4.93884
49.40000,-8.23305,-4.93645
49.45000,-8.24171,-4.94202
49.50000,-8.24998,-4.94329
49.55000,-8.25811,-4.95072
49.60000,-8.26665,-4.94457
49.65000,-8.27531,-4.95430
49.70000,-8.28331,-4.95448
49.75000,-8.29158,-4.95546
49.80000,-8.30025,-4.96086
49.85000,-8.30825,-4.96250
49.90000,-8.31651,-4.96041
49.95000,-8.32491,-4.96955
50.00000,-8.33318,-4.96612
50.05000,-8.34145,-4.96995
50.10000,-8.34971,-4.97294
50.15000,-8.35811,-4.97491
50.20000,-8.36638,-4.97478
50.25000,-8.37478,-4.98499
50.30000,-8.38305,-4.97796
50.35000,-8.39158,-4.99113
50.40000,-8.39998,-4.98445
50.45000,-8.40811,-4.99534
50.50000,-8.41665,-4.98791
50.55000,-8.42505,-5.00324
50.60000,-8.43318,-4.99352
50.65000,-8.44158,-5.00651
50.70000,-8.45011,-4.99951
50.75000,-8.45838,-5.01102
50.80000,-8.46651,-5.00380
50.85000,-8.47491,-5.01627
50.90000,-8.48331,-5.00881
50.95000,-8.49145,-5.02168
51.00000,-8.49971,-5.01154
51.05000,-8.50838,-5.02578
51.10000,-8.51665,-5.01651
51.15000,-8.52491,-5.02908
51.20000,-8.53345,-5.02469
51.25000,-8.54171,-5.02952
51.30000,-8.54998,-5.03016
51.35000,-8.55838,-5.03630
51.40000,-8.56678,-5.03325
51.45000,-8.57505,-5.04234
51.50000,-8.58345,-5.03822
51.55000,-8.59158,-5.04504
51.60000,-8.60011,-5.04506
51.65000,-8.60838,-5.04877
51.70000,-8.61651,-5.04889
51.75000,-8.62505,-5.05339
51.80000,-8.63331,-5.05343
51.85000,-8.64145,-5.05768
51.90000,-8.64998,-5.05745
51.95000,-8.65851,-5.06350
52.00000,-8.66665,-5.06164
52.05000,-8.67491,-5.06756
52.10000,-8.68358,-5.06608
52.15000,-8.69171,-5.07201
52.20000,-8.69998,-5.07127
52.25000,-8.70838,-5.07428
52.30000,-8.71678,-5.07578
52.35000,-8.72505,-5.07908
52.40000,-8.73331,-5.08025
52.45000,-8.74171,-5.08383
52.50000,-8.74998,-5.08431
52.55000,-8.75838,-5.08867
52.60000,-8.76638,-5.08713
52.65000,-8.77505,-5.09374
52.70000,-8.78331,-5.09148
52.75000,-8.79145,-5.09932
52.80000,-8.79998,-5.09694
52.85000,-8.80851,-5.10363
52.90000,-8.81651,-5.10255
52.95000,-8.82491,-5.10747
53.00000,-8.83358,-5.10704
53.05000,-8.84171,-5.11447
53.10000,-8.84998,-5.11151
53.15000,-8.85838,-5.11941
53.20000,-8.86651,-5.11708
53.25000,-8.87465,-5.12295
53.30000,-8.88318,-5.12163
53.35000,-8.89158,-5.12951
53.40000,-8.89985,-5.12722
53.45000,-8.90811,-5.13659
53.50000,-8.91638,-5.13465
53.55000,-8.92504,-5.14017
53.60000,-8.93345,-5.14062
53.65000,-8.94158,-5.15028
53.70000,-8.95011,-5.14306
53.75000,-8.95851,-5.15811
53.80000,-8.96665,-5.15359
53.85000,-8.97491,-5.15797
53.90000,-8.98358,-5.16128
53.95000,-8.99158,-5.16622
54.00000,-8.99985,-5.16713
54.05000,-9.00838,-5.17114
54.10000,-9.01651,-5.17907
54.15000,-9.02465,-5.17293
54.20000,-9.03318,-5.18528
54.25000,-9.04171,-5.18075
54.30000,-9.04984,-5.19613
54.35000,-9.05824,-5.18731
54.40000,-9.06678,-5.20201
54.45000,-9.07504,-5.19453
54.50000,-9.08331,-5.21001
54.55000,-9.09158,-5.20031
54.60000,-9.09998,-5.21894
54.65000,-9.10838,-5.20749
54.70000,-9.11664,-5.22768
54.75000,-9.12491,-5.21491
54.80000,-9.13344,-5.23298
54.85000,-9.14171,-5.22385
54.90000,-9.14971,-5.23801
54.95000,-9.15824,-5.22914
55.00000,-9.16664,-5.24684
55.05000,-9.17478,-5.23388
55.10000,-9.18331,-5.25367
55.15000,-9.19184,-5.24295
55.20000,-9.19998,-5.26209
55.25000,-9.20824,-5.24777
55.30000,-9.21691,-5.27019
55.35000,-9.22504,-5.25589
55.40000,-9.23331,-5.27345
55.45000,-9.24184,-5.26511
55.50000,-9.25011,-5.28193
55.55000,-9.25824,-5.26800
55.60000,-9.26664,-5.28964
55.65000,-9.27491,-5.27380
55.70000,-9.28344,-5.29858
55.75000,-9.29171,-5.27772
55.80000,-9.29984,-5.30597
55.85000,-9.30838,-5.28481
55.90000,-9.31678,-5.31353
55.95000,-9.32478,-5.29347
56.00000,-9.33331,-5.31767
56.05000,-9.34184,-5.30313
56.10000,-9.34998,-5.32453
56.15000,-9.35824,-5.30726
56.20000,-9.36691,-5.33293
56.25000,-9.37504,-5.31503
56.30000,-9.38318,-5.33733
56.35000,-9.39158,-5.32036
56.40000,-9.39984,-5.34202
56.45000,-9.40798,-5.32797
56.50000,-9.41638,-5.34632
56.55000,-9.42478,-5.33553
56.60000,-9.43304,-5.35102
56.65000,-9.44144,-5.34280
56.70000,-9.44984,-5.35707
56.75000,-9.45824,-5.34957
56.80000,-9.46664,-5.36459
56.85000,-9.47491,-5.35940
56.90000,-9.48331,-5.36991
56.95000,-9.49171,-5.36463
57.00000,-9.49984,-5.37737
57.05000,-9.50811,-5.37149
57.10000,-9.51678,-5.38264
57.15000,-9.52491,-5.37948
57.20000,-9.53304,-5.38759
57.25000,-9.54158,-5.38439
57.30000,-9.54998,-5.39456
57.35000,-9.55798,-5.39100
57.40000,-9.56651,-5.39917
57.45000,-9.57504,-5.39818
57.50000,-9.58331,-5.40544
57.55000,-9.59158,-5.40653
57.60000,-9.60011,-5.41290
57.65000,-9.60838,-5.41585
57.70000,-9.61678,-5.41786
57.75000,-9.62504,-5.42425
57.80000,-9.63344,-5.42511
57.85000,-9.64184,-5.42784
57.90000,-9.65011,-5.43293
57.95000,-9.65824,-5.43383
58.00000,-9.66664,-5.43753
58.05000,-9.67491,-5.44123
58.10000,-9.68304,-5.44314
58.15000,-9.69171,-5.44803
58.20000,-9.69998,-5.44939
58.25000,-9.70811,-5.45559
58.30000,-9.71664,-5.45507
58.35000,-9.72518,-5.46452
58.40000,-9.73331,-5.46257
58.45000,-9.74158,-5.46863
58.50000,-9.75011,-5.46781
58.55000,-9.75824,-5.47780
58.60000,-9.76664,-5.47009
58.65000,-9.77518,-5.48856
58.70000,-9.78344,-5.47851
58.75000,-9.79171,-5.49177
58.80000,-9.79998,-5.48618
58.85000,-9.80824,-5.49489
58.90000,-9.81664,-5.49511
58.95000,-9.82491,-5.50086
59.00000,-9.83304,-5.50021
59.05000,-9.84171,-5.50789
59.10000,-9.84998,-5.50694
59.15000,-9.85811,-5.51468
59.20000,-9.86664,-5.51286
59.25000,-9.87518,-5.52211
59.30000,-9.88318,-5.51969
59.35000,-9.89158,-5.52594
59.40000,-9.90011,-5.52798
59.45000,-9.90838,-5.53233
59.50000,-9.91651,-5.53543
59.55000,-9.92504,-5.53771
59.60000,-9.93331,-5.54167
59.65000,-9.94144,-5.54295
59.70000,-9.94984,-5.54998
59.75000,-9.95824,-5.54827
59.80000,-9.96651,-5.55597
59.85000,-9.97478,-5.55614
59.90000,-9.98304,-5.56183
59.95000,-9.99158,-5.56155
60.00000,-9.99984,-5.57012
60.05000,-10.00811,-5.57001
60.10000,-10.01664,-5.57468
60.15000,-10.02504,-5.57521
60.20000,-10.03331,-5.58367
60.25000,-10.04158,-5.58082
60.30000,-10.05011,-5.58608
60.35000,-10.05824,-5.59024
60.40000,-10.06651,-5.59046
60.45000,-10.07491,-5.59382
60.50000,-10.08331,-5.59610
60.55000,-10.09131,-5.60258
60.60000,-10.09984,-5.59893
60.65000,-10.10837,-5.60977
60.70000,-10.11664,-5.60793
60.75000,-10.12491,-5.61548
60.80000,-10.13344,-5.61241
60.85000,-10.14171,-5.62503
60.90000,-10.14998,-5.61666
60.95000,-10.15824,-5.62822
61.00000,-10.16664,-5.62270
61.05000,-10.17504,-5.63508
61.10000,-10.18344,-5.63087
61.15000,-10.19158,-5.63968
61.20000,-10.20011,-5.63666
61.25000,-10.20824,-5.64594
61.30000,-10.21637,-5.63935
61.35000,-10.22491,-5.65158
61.40000,-10.23318,-5.64330
61.45000,-10.24118,-5.65906
61.50000,-10.24984,-5.64775
61.55000,-10.25851,-5.66334
61.60000,-10.26664,-5.65675
61.65000,-10.27504,-5.66752
61.70000,-10.28371,-5.66205
61.75000,-10.29184,-5.67436
61.80000,-10.30011,-5.66793
61.85000,-10.30851,-5.67592
61.90000,-10.31678,-5.67248
61.95000,-10.32504,-5.68124
62.00000,-10.33331,-5.67757
62.05000,-10.34157,-5.68523
62.10000,-10.35011,-5.68059
62.15000,-10.35824,-5.69160
62.20000,-10.36637,-5.68601
62.25000,-10.37504,-5.69618
62.30000,-10.38331,-5.68824
62.35000,-10.39144,-5.70289
62.40000,-10.39997,-5.69529
62.45000,-10.40837,-5.70489
62.50000,-10.41651,-5.70037
62.55000,-10.42491,-5.71191
62.60000,-10.43344,-5.70515
62.65000,-10.44171,-5.71779
62.70000,-10.44997,-5.70721
62.75000,-10.45837,-5.72558
62.80000,-10.46664,-5.71328
62.85000,-10.47477,-5.72878
62.90000,-10.48304,-5.71129
62.95000,-10.49144,-5.73498
63.00000,-10.49984,-5.71835
63.05000,-10.50811,-5.73481
63.10000,-10.51637,-5.72547
63.15000,-10.52491,-5.73950
63.20000,-10.53344,-5.72738
63.25000,-10.54157,-5.74633
63.30000,-10.54997,-5.73236
63.35000,-10.55837,-5.75098
63.40000,-10.56664,-5.74024
63.45000,-10.57491,-5.74966
63.50000,-10.58331,-5.74590
63.55000,-10.59157,-5.75720
63.60000,-10.59971,-5.74822
63.65000,-10.60811,-5.76018
63.70000,-10.61664,-5.75752
63.75000,-10.62491,-5.76355
63.80000,-10.63317,-5.76268
63.85000,-10.64171,-5.76896
63.90000,-10.64997,-5.76839
63.95000,-10.65837,-5.77345
64.00000,-10.66677,-5.77341
64.05000,-10.67517,-5.77659
64.10001,-10.68344,-5.78149
64.15000,-10.69171,-5.78204
64.20000,-10.70024,-5.78714
64.25000,-10.70851,-5.78920
64.30000,-10.71677,-5.79087
64.35001,-10.72491,-5.79569
64.40000,-10.73344,-5.79431
64.45000,-10.74171,-5.80199
64.50000,-10.74971,-5.79997
64.55000,-10.75824,-5.80592
64.60001,-10.76664,-5.80122
64.65000,-10.77477,-5.81593
64.70000,-10.78331,-5.80389
64.75000,-10.79184,-5.81655
64.80000,-10.79997,-5.81231
64.85001,-10.80837,-5.81366
64.90000,-10.81677,-5.81153
64.95000,-10.82504,-5.82029
65.00000,-10.83331,-5.81230
65.05000,-10.84157,-5.82702
65.10001,-10.84997,-5.81849
65.15000,-10.85824,-5.82930
65.20000,-10.86664,-5.82330
65.25000,-10.87491,-5.83477
65.30000,-10.88331,-5.82542
65.35001,-10.89157,-5.83135
65.40000,-10.89971,-5.83924
65.45000,-10.90837,-5.83420
65.50000,-10.91677,-5.84147
65.55000,-10.92477,-5.83761
65.60001,-10.93331,-5.84647
65.65000,-10.94184,-5.84104
65.70001,-10.94997,-5.85267
65.75000,-10.95837,-5.84423
65.80000,-10.96691,-5.85894
65.85001,-10.97504,-5.84364
65.90000,-10.98317,-5.86257
65.95001,-10.99157,-5.84603
66.00000,-10.99984,-5.86458
66.05000,-11.00811,-5.85231
66.10001,-11.01637,-5.86797
66.15000,-11.02477,-5.85449
66.20001,-11.03304,-5.87016
66.25000,-11.04144,-5.86206
66.30000,-11.04984,-5.87299
66.35001,-11.05824,-5.86899
66.40000,-11.06664,-5.87545
66.45001,-11.07477,-5.87522
66.50000,-11.08317,-5.87774
66.55000,-11.09171,-5.87963
66.60001,-11.09997,-5.88245
66.65000,-11.10824,-5.88457
66.70001,-11.11691,-5.87979
66.75000,-11.12504,-5.88972
66.80000,-11.13317,-5.88656
66.85001,-11.14171,-5.89318
66.90000,-11.14997,-5.89511
66.95001,-11.15811,-5.89374
67.00000,-11.16637,-5.89329
67.05000,-11.17491,-5.89683
67.10001,-11.18317,-5.89962
67.15000,-11.19157,-5.90180
67.20001,-11.19997,-5.90879
67.25000,-11.20837,-5.90114
67.30000,-11.21664,-5.91026
67.35001,-11.22504,-5.90576
67.40000,-11.23331,-5.91133
67.45001,-11.24184,-5.91575
67.50000,-11.25011,-5.91366
67.55000,-11.25824,-5.91610
67.60001,-11.26677,-5.91466
67.65000,-11.27504,-5.91753
67.70001,-11.28317,-5.91746
67.75000,-11.29171,-5.91908
67.80000,-11.29997,-5.91711
67.85001,-11.30811,-5.91947
67.90000,-11.31664,-5.91722
67.95001,-11.32517,-5.92108
68.00000,-11.33317,-5.92146
68.05000,-11.34157,-5.92395
68.10001,-11.35011,-5.91843
68.15000,-11.35824,-5.93150
68.20001,-11.36664,-5.91894
68.25000,-11.37504,-5.93151
68.30000,-11.38344,-5.92537
68.35001,-11.39157,-5.93103
68.40000,-11.39984,-5.92505
68.45001,-11.40811,-5.93126
68.50000,-11.41664,-5.92688
68.55000,-11.42491,-5.93483
68.60001,-11.43304,-5.92848
68.65000,-11.44171,-5.93299
68.70001,-11.44997,-5.92960
68.75000,-11.45811,-5.93671
68.80000,-11.46664,-5.92854
68.85001,-11.47517,-5.93897
68.90000,-11.48317,-5.93373
68.95001,-11.49157,-5.93547
69.00000,-11.50011,-5.93404
69.05000,-11.50824,-5.93716
69.10001,-11.51650,-5.93696
69.15000,-11.52491,-5.93502
69.20001,-11.53331,-5.94293
69.25000,-11.54144,-5.93498
69.30000,-11.54984,-5.94195
69.35001,-11.55824,-5.93876
69.40000,-11.56650,-5.94155
69.45001,-11.57477,-5.94012
69.50000,-11.58304,-5.94365
69.55000,-11.59157,-5.94075
69.60001,-11.59997,-5.94660
69.65000,-11.60811,-5.94460
69.70001,-11.61677,-5.94946
69.75000,-11.62517,-5.94971
69.80000,-11.63330,-5.95043
69.85001,-11.64157,-5.95222
69.90000,-11.65024,-5.95371
69.95001,-11.65824,-5.95345
70.00000,-11.66637,-5.95457
70.05000,-11.67491,-5.95524
70.10001,-11.68330,-5.95726
70.15000,-11.69130,-5.95644
70.20001,-11.69970,-5.95938
70.25000,-11.70824,-5.95862
70.30000,-11.71650,-5.95960
70.35001,-11.72477,-5.96023
70.40000,-11.73330,-5.96081
70.45001,-11.74157,-5.96157
70.50000,-11.74997,-5.96359
70.55000,-11.75837,-5.96244
70.60001,-11.76677,-5.96597
70.65000,-11.77517,-5.96204
70.70001,-11.78344,-5.96892
70.75000,-11.79157,-5.96509
70.80000,-11.80010,-5.96596
70.85001,-11.80837,-5.96663
70.90000,-11.81624,-5.96747
70.95001,-11.82490,-5.96648
71.00000,-11.83317,-5.96966
71.05000,-11.84130,-5.97021
71.10001,-11.84984,-5.97240
71.15000,-11.85850,-5.97281
71.20001,-11.86664,-5.97657
71.25000,-11.87490,-5.97727
71.30000,-11.88357,-5.97561
71.35001,-11.89170,-5.98434
71.40000,-11.89997,-5.97868
71.45001,-11.90837,-5.98512
71.50000,-11.91677,-5.98293
71.55000,-11.92504,-5.98798
71.60001,-11.93330,-5.98516
71.65000,-11.94157,-5.98911
71.70001,-11.95010,-5.98853
71.75000,-11.95837,-5.99311
71.80000,-11.96650,-5.98975
71.85001,-11.97504,-5.99495
71.90000,-11.98330,-5.99313
71.95001,-11.99144,-6.00008
72.00000,-11.99997,-5.99155
72.05000,-12.00864,-6.00700
72.10001,-12.01664,-5.99854
72.15000,-12.02490,-6.00441
72.20001,-12.03357,-6.00143
72.25000,-12.04157,-6.00866
72.30000,-12.04984,-6.00271
72.35001,-12.05824,-6.00948
72.40000,-12.06650,-6.00522
72.45001,-12.07477,-6.01193
72.50000,-12.08317,-6.00607
72.55000,-12.09157,-6.01467
72.60001,-12.09984,-6.00863
72.65000,-12.10824,-6.01616
72.70001,-12.11650,-6.01521
72.75000,-12.12504,-6.01489
72.80000,-12.13344,-6.01829
72.85001,-12.14157,-6.02010
72.90000,-12.15010,-6.01997
72.95001,-12.15850,-6.02327
73.00000,-12.16664,-6.02638
73.05000,-12.17490,-6.02520
73.10001,-12.18344,-6.02836
73.15000,-12.19170,-6.03030
73.20001,-12.19984,-6.03412
73.25000,-12.20824,-6.03111
73.30000,-12.21650,-6.03834
73.35001,-12.22477,-6.03772
73.40000,-12.23317,-6.03920
73.45001,-12.24170,-6.04740
73.50000,-12.24997,-6.04761
73.55000,-12.25824,-6.04973
73.60001,-12.26677,-6.05413
73.65000,-12.27504,-6.05586
73.70001,-12.28344,-6.05952
73.75000,-12.29170,-6.06025
73.80000,-12.30010,-6.06309
73.85001,-12.30837,-6.06664
73.90000,-12.31664,-6.06721
73.95001,-12.32477,-6.07035
74.00000,-12.33344,-6.07241
74.05000,-12.34170,-6.07609
74.10001,-12.34970,-6.07577
74.15000,-12.35837,-6.07951
74.20001,-12.36664,-6.08010
74.25000,-12.37477,-6.08218
74.30000,-12.38330,-6.08378
74.35001,-12.39184,-6.08860
74.40000,-12.39984,-6.08881
74.45001,-12.40810,-6.09008
74.50000,-12.41677,-6.09481
74.55000,-12.42504,-6.09627
74.60001,-12.43344,-6.10067
74.65000,-12.44184,-6.10255
74.70001,-12.45010,-6.10563
74.75000,-12.45837,-6.10754
74.80000,-12.46664,-6.11085
74.85001,-12.47504,-6.11312
74.90000,-12.48344,-6.11638
74.95001,-12.49170,-6.12003
75.00000,-12.49984,-6.12223
75.05000,-12.50837,-6.12322
75.10001,-12.51677,-6.12903
75.15000,-12.52490,-6.13235
75.20001,-12.53330,-6.13233
75.25000,-12.54184,-6.13549
75.30000,-12.54984,-6.14088
75.35001,-12.55824,-6.14192
75.40000,-12.56690,-6.14571
75.45001,-12.57490,-6.14933
75.50000,-12.58317,-6.15183
75.55000,-12.59157,-6.15598
75.60001,-12.59970,-6.15668
75.65000,-12.60797,-6.16090
75.70001,-12.61637,-6.16499
75.75000,-12.62477,-6.16873
75.80000,-12.63317,-6.17060
75.85001,-12.64157,-6.17546
75.90000,-12.64984,-6.17783
75.95001,-12.65824,-6.17981
76.00000,-12.66664,-6.18447
76.05000,-12.67477,-6.18790
76.10001,-12.68330,-6.18847
76.15000,-12.69170,-6.19555
76.20001,-12.69984,-6.19701
76.25000,-12.70824,-6.20091
76.30000,-12.71690,-6.20326
76.35001,-12.72490,-6.21077
76.40000,-12.73317,-6.21009
76.45001,-12.74157,-6.21517
76.50000,-12.74997,-6.21804
76.55000,-12.75810,-6.22211
76.60001,-12.76650,-6.22297
76.65000,-12.77504,-6.22916
76.70001,-12.78330,-6.23086
76.75000,-12.79170,-6.23622
76.80000,-12.80010,-6.23816
76.85001,-12.80837,-6.23977
76.90000,-12.81663,-6.23904
76.95001,-12.82504,-6.24523
77.00000,-12.83330,-6.24089
77.05000,-12.84170,-6.24658
77.10001,-12.85010,-6.24785
77.15000,-12.85824,-6.25081
77.20001,-12.86677,-6.25236
77.25000,-12.87504,-6.25573
77.30000,-12.88304,-6.25999
77.35001,-12.89170,-6.25954
77.40000,-12.89997,-6.26514
77.45001,-12.90810,-6.26398
77.50000,-12.91677,-6.26828
77.55000,-12.92530,-6.27003
77.60001,-12.93330,-6.27296
77.65000,-12.94170,-6.27194
77.70001,-12.95037,-6.27770
77.75000,-12.95850,-6.27839
77.80000,-12.96677,-6.28294
77.85001,-12.97517,-6.28190
77.90000,-12.98343,-6.28840
77.95001,-12.99157,-6.28484
78.00000,-12.99983,-6.29186
78.05000,-13.00810,-6.29015
78.10001,-13.01663,-6.29787
78.15000,-13.02490,-6.29878
78.20001,-13.03304,-6.30454
78.25000,-13.04157,-6.30365
78.30000,-13.04997,-6.31317
78.35001,-13.05810,-6.31302
78.40000,-13.06650,-6.31871
78.45001,-13.07517,-6.32199
78.50000,-13.08317,-6.32833
78.55000,-13.09157,-6.32871
78.60001,-13.10023,-6.33565
78.65000,-13.10837,-6.33686
78.70001,-13.11663,-6.34291
78.75000,-13.12490,-6.34299
78.80000,-13.13330,-6.34930
78.85001,-13.14143,-6.35100
78.90000,-13.14983,-6.35677
78.95001,-13.15810,-6.35836
79.00000,-13.16637,-6.36301
79.05000,-13.17477,-6.36748
79.10001,-13.18317,-6.37214
79.15000,-13.19170,-6.37562
79.20001,-13.19997,-6.38342
79.25000,-13.20810,-6.38486
79.30000,-13.21663,-6.39030
79.35001,-13.22517,-6.39504
79.40000,-13.23330,-6.40144
79.45001,-13.24157,-6.40387
79.50000,-13.25023,-6.41027
79.55000,-13.25837,-6.41619
79.60001,-13.26650,-6.41718
79.65000,-13.27503,-6.42293
79.70001,-13.28330,-6.42837
79.75000,-13.29130,-6.42923
79.80000,-13.29983,-6.43687
79.85001,-13.30837,-6.44062
79.90000,-13.31663,-6.44554
79.95001,-13.32490,-6.45044
80.00000,-13.33343,-6.45632
80.05000,-13.34170,-6.45841
80.10001,-13.34997,-6.46499
80.15000,-13.35837,-6.46764
80.20001,-13.36677,-6.47230
80.25000,-13.37503,-6.47471
80.30000,-13.38330,-6.48178
80.35001,-13.39157,-6.48098
80.40000,-13.40010,-6.48879
80.45001,-13.40837,-6.49208
80.50001,-13.41650,-6.49483
80.55000,-13.42503,-6.49741
80.60001,-13.43330,-6.50241
80.65000,-13.44130,-6.50446
80.70001,-13.44997,-6.50565
80.75001,-13.45850,-6.51650
80.80000,-13.46663,-6.51395
80.85001,-13.47503,-6.52108
80.90000,-13.48357,-6.52266
80.95001,-13.49170,-6.52888
81.00001,-13.49997,-6.52908
81.05000,-13.50837,-6.53551
81.10001,-13.51663,-6.53829
81.15000,-13.52503,-6.54488
81.20001,-13.53343,-6.54600
81.25001,-13.54170,-6.55312
81.30000,-13.54997,-6.55364
81.35001,-13.55823,-6.56170
81.40000,-13.56637,-6.56122
81.45001,-13.57503,-6.56801
81.50001,-13.58330,-6.57114
81.55000,-13.59143,-6.57717
81.60001,-13.59997,-6.57844
81.65000,-13.60850,-6.58746
81.70001,-13.61663,-6.58807
81.75001,-13.62503,-6.59660
81.80000,-13.63357,-6.59523
81.85001,-13.64170,-6.60763
81.90000,-13.64983,-6.60407
81.95001,-13.65823,-6.61195
82.00001,-13.66637,-6.61357
82.05000,-13.67463,-6.61947
82.10001,-13.68303,-6.62078
82.15000,-13.69143,-6.63096
82.20001,-13.69970,-6.62863
82.25001,-13.70810,-6.64073
82.30000,-13.71637,-6.63755
82.35001,-13.72477,-6.64998
82.40000,-13.73317,-6.64682
82.45001,-13.74143,-6.65931
82.50001,-13.74997,-6.65705
82.55000,-13.75837,-6.66674
82.60001,-13.76663,-6.66850
82.65000,-13.77490,-6.67333
82.70001,-13.78343,-6.67284
82.75001,-13.79157,-6.68308
82.80000,-13.79983,-6.67980
82.85001,-13.80837,-6.68790
82.90000,-13.81663,-6.68910
82.95001,-13.82463,-6.69434
83.00001,-13.83303,-6.69393
83.05000,-13.84170,-6.70245
83.10001,-13.84997,-6.70439
83.15000,-13.85823,-6.71026
83.20001,-13.86677,-6.71246
83.25001,-13.87503,-6.71641
83.30000,-13.88330,-6.72013
83.35001,-13.89170,-6.72456
83.40000,-13.90010,-6.72641
83.45001,-13.90850,-6.73132
83.50001,-13.91677,-6.73684
83.55000,-13.92490,-6.73697
83.60001,-13.93343,-6.74248
83.65000,-13.94170,-6.74556
83.70001,-13.94983,-6.75045
83.75001,-13.95837,-6.74931
83.80000,-13.96663,-6.76110
83.85001,-13.97477,-6.75942
83.90000,-13.98330,-6.76746
83.95001,-13.99183,-6.76942
84.00001,-13.99983,-6.77643
84.05000,-14.00823,-6.77747
84.10001,-14.01677,-6.78461
84.15000,-14.02503,-6.78610
84.20001,-14.03330,-6.79322
84.25001,-14.04170,-6.79481
84.30000,-14.04997,-6.80229
84.35001,-14.05823,-6.80303
84.40000,-14.06663,-6.81063
84.45001,-14.07490,-6.81203
84.50001,-14.08330,-6.81724
84.55000,-14.09170,-6.82231
84.60001,-14.09983,-6.82386
84.65000,-14.10837,-6.82945
84.70001,-14.11677,-6.83010
84.75001,-14.12490,-6.84065
84.80000,-14.13330,-6.83502
84.85001,-14.14170,-6.84964
84.90000,-14.14997,-6.84678
84.95001,-14.15823,-6.85623
85.00001,-14.16677,-6.85391
85.05000,-14.17490,-6.86467
85.10001,-14.18317,-6.85905
85.15000,-14.19157,-6.86923
85.20001,-14.19983,-6.86483
85.25001,-14.20810,-6.87514
85.30000,-14.21637,-6.87115
85.35001,-14.22476,-6.88321
85.40000,-14.23303,-6.87849
85.45001,-14.24143,-6.89024
85.50001,-14.24983,-6.88838
85.55000,-14.25837,-6.89749
85.60001,-14.26676,-6.89840
85.65000,-14.27490,-6.90823
85.70001,-14.28330,-6.90238
85.75001,-14.29183,-6.91741
85.80000,-14.29997,-6.91290
85.85001,-14.30823,-6.91998
85.90000,-14.31676,-6.92224
85.95001,-14.32490,-6.92829
86.00001,-14.33317,-6.93216
86.05000,-14.34156,-6.93306
86.10001,-14.34997,-6.94138
86.15000,-14.35810,-6.94345
86.20001,-14.36637,-6.94806
86.25001,-14.37503,-6.95470
86.30000,-14.38317,-6.95928
86.35001,-14.39143,-6.96408
86.40000,-14.40010,-6.97244
86.45001,-14.40836,-6.97168
86.50001,-14.41690,-6.98664
86.55000,-14.42517,-6.98438
86.60001,-14.43356,-6.99356
86.65000,-14.44183,-6.99562
86.70001,-14.45010,-7.00366
86.75001,-14.45823,-7.00476
86.80000,-14.46676,-7.01154
86.85001,-14.47503,-7.01908
86.90000,-14.48316,-7.01856
86.95001,-14.49170,-7.02659
87.00001,-14.49996,-7.03195
87.05000,-14.50823,-7.03212
87.10001,-14.51676,-7.04079
87.15000,-14.52530,-7.04332
87.20001,-14.53330,-7.05096
87.25001,-14.54170,-7.05159
87.30000,-14.55023,-7.05789
87.35001,-14.55836,-7.06310
87.40000,-14.56676,-7.06569
87.45001,-14.57503,-7.07139
87.50001,-14.58343,-7.07611
87.55000,-14.59170,-7.07952
87.60001,-14.59996,-7.08662
87.65000,-14.60823,-7.08659
87.70001,-14.61663,-7.09279
87.75001,-14.62490,-7.09868
87.80000,-14.63316,-7.10066
87.85001,-14.64170,-7.10592
87.90000,-14.65010,-7.11294
87.95001,-14.65810,-7.11630
88.00001,-14.66663,-7.12142
88.05000,-14.67516,-7.12676
88.10001,-14.68330,-7.13401
88.15000,-14.69156,-7.13391
88.20001,-14.70023,-7.14221
88.25001,-14.70836,-7.14458
88.30000,-14.71663,-7.15126
88.35001,-14.72503,-7.14948
88.40000,-14.73330,-7.16217
88.45001,-14.74156,-7.15606
88.50001,-14.74983,-7.16984
88.55000,-14.75823,-7.16424
88.60001,-14.76636,-7.17641
88.65000,-14.77476,-7.17323
88.70001,-14.78316,-7.18310
88.75001,-14.79170,-7.18463
88.80000,-14.79996,-7.19297
88.85001,-14.80810,-7.19223
88.90000,-14.81663,-7.20375
88.95001,-14.82516,-7.20092
89.00001,-14.83330,-7.21457
89.05000,-14.84156,-7.20922
89.10001,-14.85010,-7.22154
89.15000,-14.85823,-7.21781
89.20001,-14.86650,-7.22776
89.25001,-14.87503,-7.22355
89.30000,-14.88330,-7.23313
89.35001,-14.89143,-7.23075
89.40000,-14.89983,-7.23994
89.45001,-14.90836,-7.23753
89.50001,-14.91663,-7.24844
89.55000,-14.92490,-7.24460
89.60001,-14.93356,-7.25712
89.65000,-14.94183,-7.25520
89.70001,-14.95023,-7.26496
89.75001,-14.95850,-7.26570
89.80000,-14.96676,-7.27308
89.85001,-14.97516,-7.27059
89.90000,-14.98343,-7.28029
89.95001,-14.99170,-7.28227
90.00001,-15.00010,-7.28843
90.05000,-15.00836,-7.29025
90.10001,-15.01650,-7.29641
90.11601,-15.01930,-7.29571
