Time,Extension,Load
(sec),(mm),(N)
0.00000,-0.00027,0.00289
0.05000,-0.00160,-0.00248
0.10000,-0.00653,0.00221
0.15000,-0.01573,-0.00233
0.20000,-0.02627,0.00154
0.25000,-0.03653,-0.00119
0.30000,-0.04627,0.00032
0.35000,-0.05547,-0.00190
0.40000,-0.06453,-0.00012
0.45000,-0.07347,-0.00072
0.50000,-0.08213,-0.00197
0.55000,-0.09080,-0.00135
0.60000,-0.09933,-0.00138
0.65000,-0.10773,-0.00374
0.70000,-0.11627,-0.00198
0.75000,-0.12480,-0.00199
0.80000,-0.13320,-0.00255
0.85000,-0.14160,-0.00344
0.90000,-0.15000,-0.00697
0.95000,-0.15840,-0.00207
1.00000,-0.16680,-0.00475
1.05000,-0.17507,-0.00538
1.10000,-0.18333,-0.00591
1.15000,-0.19187,-0.00857
1.20000,-0.20013,-0.00635
1.25000,-0.20827,-0.00921
1.30000,-0.21667,-0.00824
1.35000,-0.22520,-0.01151
1.40000,-0.23320,-0.00960
1.45000,-0.24160,-0.01214
1.50000,-0.25027,-0.01121
1.55000,-0.25840,-0.01572
1.60000,-0.26667,-0.01375
1.65000,-0.27533,-0.01562
1.70000,-0.28360,-0.01540
1.75000,-0.29187,-0.01898
1.80000,-0.30027,-0.01660
1.85000,-0.30867,-0.02052
1.90000,-0.31693,-0.02046
1.95000,-0.32520,-0.02118
2.00000,-0.33333,-0.02337
2.05000,-0.34187,-0.02408
2.10000,-0.35027,-0.02569
2.15000,-0.35827,-0.02556
2.20000,-0.36693,-0.02913
2.25000,-0.37520,-0.03106
2.30000,-0.38333,-0.03035
2.35000,-0.39187,-0.03333
2.40000,-0.40040,-0.03423
2.45000,-0.40853,-0.03751
2.50000,-0.41680,-0.03502
2.55000,-0.42547,-0.04291
2.60000,-0.43347,-0.03940
2.65000,-0.44173,-0.04463
2.70000,-0.45013,-0.04144
2.75000,-0.45853,-0.04675
2.80000,-0.46693,-0.04937
2.85000,-0.47520,-0.05332
2.90000,-0.48347,-0.04900
2.95000,-0.49187,-0.05564
3.00000,-0.50013,-0.05432
3.05000,-0.50827,-0.05965
3.10000,-0.51680,-0.05956
3.15000,-0.52520,-0.06533
3.20000,-0.53333,-0.06173
3.25000,-0.54173,-0.07074
3.30000,-0.55040,-0.06522
3.35000,-0.55853,-0.07331
3.40000,-0.56667,-0.07046
3.45000,-0.57533,-0.07741
3.50000,-0.58360,-0.07621
3.55000,-0.59173,-0.08381
3.60000,-0.60027,-0.07986
3.65000,-0.60853,-0.08600
3.70000,-0.61667,-0.08503
3.75000,-0.62507,-0.09295
3.80000,-0.63347,-0.09320
3.85000,-0.64160,-0.09548
3.90000,-0.65000,-0.09985
3.95000,-0.65840,-0.10241
4.00000,-0.66680,-0.10407
4.05000,-0.67520,-0.10821
4.10000,-0.68346,-0.11186
4.15000,-0.69186,-0.11604
4.20000,-0.70026,-0.11781
4.25000,-0.70853,-0.12177
4.30000,-0.71680,-0.12494
4.35000,-0.72520,-0.12961
4.40000,-0.73346,-0.13458
4.45000,-0.74173,-0.13865
4.50000,-0.75013,-0.13877
4.55000,-0.75853,-0.14018
4.60000,-0.76666,-0.15460
4.65000,-0.77493,-0.15048
4.70000,-0.78360,-0.15909
4.75000,-0.79186,-0.15532
4.80000,-0.80013,-0.17157
4.85000,-0.80866,-0.16783
4.90000,-0.81693,-0.17900
4.95000,-0.82520,-0.17502
5.00000,-0.83360,-0.18801
5.05000,-0.84200,-0.18654
5.10000,-0.85040,-0.20007
5.15000,-0.85866,-0.19293
5.20000,-0.86666,-0.21079
5.25000,-0.87533,-0.20532
5.30000,-0.88360,-0.22008
5.35000,-0.89160,-0.21627
5.40000,-0.90013,-0.23039
5.45000,-0.90853,-0.22862
5.50000,-0.91653,-0.24063
5.55000,-0.92506,-0.24043
5.60000,-0.93373,-0.25332
5.65000,-0.94186,-0.25067
5.70000,-0.95013,-0.26572
5.75000,-0.95880,-0.26339
5.80000,-0.96693,-0.27608
5.85000,-0.97533,-0.27686
5.90000,-0.98373,-0.28643
5.95000,-0.99186,-0.28867
6.00000,-1.00000,-0.29846
6.05000,-1.00840,-0.30144
6.10000,-1.01680,-0.31001
6.15000,-1.02520,-0.31349
6.20000,-1.03346,-0.32301
6.25000,-1.04160,-0.32553
6.30000,-1.05013,-0.33574
6.35000,-1.05866,-0.33705
6.40000,-1.06666,-0.34925
6.45000,-1.07520,-0.35129
6.50000,-1.08373,-0.36109
6.55000,-1.09186,-0.36323
6.60000,-1.10013,-0.37128
6.65000,-1.10880,-0.37679
6.70000,-1.11693,-0.38577
6.75000,-1.12506,-0.38861
6.80000,-1.13346,-0.39839
6.85000,-1.14186,-0.40190
6.90000,-1.15000,-0.41078
6.95000,-1.15826,-0.41522
7.00000,-1.16666,-0.42478
7.05000,-1.17493,-0.42990
7.10000,-1.18333,-0.43790
7.15000,-1.19173,-0.44511
7.20000,-1.20026,-0.45133
7.25000,-1.20853,-0.45907
7.30000,-1.21680,-0.46677
7.35000,-1.22520,-0.47428
7.40000,-1.23373,-0.48170
7.45000,-1.24200,-0.49065
7.50000,-1.25013,-0.49659
7.55000,-1.25866,-0.50580
7.60000,-1.26693,-0.51445
7.65000,-1.27493,-0.52251
7.70000,-1.28346,-0.53023
7.75000,-1.29186,-0.54174
7.80000,-1.30000,-0.54955
7.85000,-1.30826,-0.55569
7.90000,-1.31693,-0.56814
7.95000,-1.32520,-0.57694
8.00000,-1.33346,-0.58483
8.05000,-1.34200,-0.59494
8.10000,-1.35026,-0.60422
8.15000,-1.35866,-0.61278
8.20000,-1.36706,-0.62242
8.25000,-1.37533,-0.63173
8.30000,-1.38373,-0.64100
8.35000,-1.39200,-0.65051
8.40000,-1.40000,-0.66059
8.45000,-1.40853,-0.66708
8.50000,-1.41680,-0.68198
8.55000,-1.42493,-0.68656
8.60000,-1.43346,-0.69909
8.65000,-1.44186,-0.70565
8.70000,-1.45000,-0.72042
8.75000,-1.45840,-0.72618
8.80000,-1.46706,-0.73833
8.85000,-1.47520,-0.74564
8.90000,-1.48360,-0.75858
8.95000,-1.49213,-0.76679
9.00000,-1.50013,-0.77776
9.05000,-1.50840,-0.78618
9.10000,-1.51680,-0.79823
9.15000,-1.52520,-0.80715
9.20000,-1.53346,-0.81833
9.25000,-1.54186,-0.82798
9.30000,-1.55013,-0.84006
9.35000,-1.55840,-0.84721
9.40000,-1.56680,-0.86251
9.45000,-1.57493,-0.86826
9.50000,-1.58346,-0.88160
9.55000,-1.59186,-0.89170
9.60000,-1.60000,-0.90326
9.65000,-1.60853,-0.91341
9.70000,-1.61706,-0.92502
9.75000,-1.62520,-0.93616
9.80000,-1.63346,-0.94546
9.85000,-1.64200,-0.95850
9.90000,-1.65013,-0.96791
9.95000,-1.65840,-0.97938
10.00000,-1.66666,-0.98872
10.05000,-1.67506,-1.00272
10.10000,-1.68333,-1.01032
10.15000,-1.69173,-1.02359
10.20000,-1.70013,-1.03381
10.25000,-1.70826,-1.04648
10.30000,-1.71666,-1.05480
10.35000,-1.72506,-1.06934
10.40000,-1.73360,-1.07919
10.45000,-1.74186,-1.09138
10.50000,-1.75013,-1.10224
10.55000,-1.75853,-1.11257
10.60000,-1.76693,-1.12485
10.65000,-1.77520,-1.13611
10.70000,-1.78346,-1.14722
10.75000,-1.79200,-1.15841
10.80000,-1.80026,-1.17061
10.85000,-1.80840,-1.18106
10.90000,-1.81680,-1.19277
10.95000,-1.82520,-1.20444
11.00000,-1.83333,-1.21595
11.05000,-1.84160,-1.22612
11.10000,-1.85026,-1.23959
11.15000,-1.85853,-1.25007
11.20000,-1.86680,-1.26290
11.25000,-1.87533,-1.27472
11.30000,-1.88360,-1.28503
11.35000,-1.89200,-1.29883
11.40000,-1.90026,-1.30964
11.45000,-1.90866,-1.32299
11.50000,-1.91693,-1.33284
11.55000,-1.92533,-1.34587
11.60000,-1.93346,-1.35869
11.65000,-1.94200,-1.36869
11.70000,-1.95026,-1.38322
11.75000,-1.95840,-1.39207
11.80000,-1.96693,-1.40752
11.85000,-1.97506,-1.41484
11.90000,-1.98333,-1.43187
11.95000,-1.99186,-1.43973
12.00000,-2.00040,-1.45652
12.05000,-2.00853,-1.46442
12.10000,-2.01680,-1.48081
12.15000,-2.02533,-1.48843
12.20000,-2.03359,-1.50465
12.25000,-2.04186,-1.51279
12.30000,-2.05040,-1.53019
12.35000,-2.05866,-1.53586
12.40000,-2.06693,-1.55390
12.45000,-2.07520,-1.56069
12.50000,-2.08346,-1.57738
12.55000,-2.09186,-1.58598
12.60000,-2.10013,-1.60092
12.65000,-2.10826,-1.61014
12.70000,-2.11679,-1.62635
12.75000,-2.12519,-1.63347
12.80000,-2.13346,-1.65249
12.85000,-2.14186,-1.65692
12.90000,-2.15039,-1.67601
12.95000,-2.15853,-1.68350
13.00000,-2.16666,-1.69822
13.05000,-2.17533,-1.70723
13.10000,-2.18346,-1.72452
13.15000,-2.19173,-1.73153
13.20000,-2.20013,-1.74817
13.25000,-2.20853,-1.75514
13.30000,-2.21679,-1.77164
13.35000,-2.22506,-1.77360
13.40000,-2.23333,-1.79167
13.45000,-2.24159,-1.79826
13.50000,-2.24999,-1.80955
13.55000,-2.25839,-1.81255
13.60000,-2.26679,-1.82085
13.65000,-2.27519,-1.82336
13.70000,-2.28346,-1.83069
13.75000,-2.29186,-1.83198
13.80000,-2.30039,-1.83430
13.85000,-2.30853,-1.84109
13.90000,-2.31666,-1.84213
13.95000,-2.32519,-1.85240
14.00000,-2.33346,-1.85988
14.05000,-2.34159,-1.86382
14.10000,-2.35013,-1.86879
14.15000,-2.35853,-1.88210
14.20000,-2.36666,-1.89208
14.25000,-2.37506,-1.90401
14.30000,-2.38359,-1.91063
14.35000,-2.39186,-1.92455
14.40000,-2.40013,-1.92761
14.45000,-2.40866,-1.94506
14.50000,-2.41706,-1.95560
14.55000,-2.42519,-1.97342
14.60000,-2.43359,-1.98570
14.65000,-2.44199,-2.00130
14.70000,-2.45039,-2.01286
14.75000,-2.45853,-2.02881
14.80000,-2.46666,-2.03899
14.85000,-2.47519,-2.05529
14.90000,-2.48359,-2.06884
14.95000,-2.49159,-2.08396
15.00000,-2.50013,-2.09661
15.05000,-2.50853,-2.11065
15.10000,-2.51666,-2.12417
15.15000,-2.52519,-2.13846
15.20000,-2.53373,-2.14560
15.25000,-2.54173,-2.13258
15.30000,-2.54999,-2.14182
15.35000,-2.55866,-2.14649
15.40000,-2.56693,-2.16038
15.45000,-2.57519,-2.16896
15.50000,-2.58359,-2.17878
15.55000,-2.59199,-2.18679
15.60000,-2.60013,-2.19163
15.65000,-2.60839,-2.19902
15.70000,-2.61679,-2.21051
15.75000,-2.62519,-2.22500
15.80000,-2.63346,-2.23736
15.85000,-2.64159,-2.24954
15.90000,-2.65013,-2.26012
15.95000,-2.65853,-2.27395
16.00000,-2.66666,-2.28597
16.05000,-2.67506,-2.29573
16.10000,-2.68373,-2.30982
16.15000,-2.69186,-2.32130
16.20000,-2.69999,-2.33177
16.25000,-2.70853,-2.34451
16.30000,-2.71679,-2.35692
16.35000,-2.72506,-2.36809
16.40000,-2.73346,-2.37897
16.45000,-2.74186,-2.39458
16.50000,-2.74999,-2.40227
16.55000,-2.75839,-2.41669
16.60000,-2.76679,-2.42732
16.65000,-2.77493,-2.44231
16.70000,-2.78333,-2.45380
16.75000,-2.79173,-2.46840
16.80000,-2.80026,-2.47915
16.85000,-2.80853,-2.49303
16.90000,-2.81679,-2.50444
16.95000,-2.82519,-2.51700
17.00000,-2.83359,-2.52860
17.05000,-2.84186,-2.54003
17.10000,-2.85013,-2.55037
17.15000,-2.85879,-2.56107
17.20000,-2.86693,-2.57415
17.25000,-2.87506,-2.58391
17.30000,-2.88346,-2.59694
17.35000,-2.89186,-2.60838
17.40000,-2.89986,-2.62031
17.45000,-2.90826,-2.63036
17.50000,-2.91693,-2.64410
17.55000,-2.92519,-2.65502
17.60000,-2.93346,-2.66950
17.65000,-2.94199,-2.68187
17.70000,-2.95039,-2.69552
17.75000,-2.95866,-2.70719
17.80000,-2.96693,-2.72174
17.85000,-2.97533,-2.73216
17.90000,-2.98359,-2.74590
17.95000,-2.99186,-2.75630
18.00000,-2.99999,-2.76947
18.05000,-3.00853,-2.78138
18.10000,-3.01679,-2.79435
18.15000,-3.02493,-2.80600
18.20000,-3.03359,-2.81743
18.25000,-3.04186,-2.83067
18.30000,-3.04999,-2.84169
18.35000,-3.05839,-2.85515
18.40000,-3.06706,-2.86673
18.45000,-3.07506,-2.87918
18.50000,-3.08333,-2.89073
18.55000,-3.09199,-2.90260
18.60000,-3.10026,-2.91437
18.65000,-3.10853,-2.92634
18.70000,-3.11706,-2.93852
18.75000,-3.12533,-2.95124
18.80000,-3.13359,-2.96096
18.85000,-3.14186,-2.97244
18.90000,-3.15013,-2.98533
18.95000,-3.15853,-2.99516
19.00000,-3.16679,-3.00843
19.05000,-3.17493,-3.01815
19.10000,-3.18359,-3.02982
19.15000,-3.19199,-3.04203
19.20000,-3.20013,-3.05442
19.25000,-3.20853,-3.06371
19.30000,-3.21706,-3.07612
19.35000,-3.22519,-3.08767
19.40000,-3.23346,-3.09927
19.45000,-3.24199,-3.10852
19.50000,-3.25026,-3.12254
19.55000,-3.25853,-3.13072
19.60000,-3.26679,-3.14299
19.65000,-3.27519,-3.15328
19.70000,-3.28346,-3.16592
19.75000,-3.29173,-3.17680
19.80000,-3.30013,-3.18760
19.85000,-3.30826,-3.19862
19.90000,-3.31666,-3.20931
19.95000,-3.32506,-3.22115
20.00000,-3.33346,-3.23140
20.05000,-3.34186,-3.24174
20.10000,-3.35013,-3.25484
20.15000,-3.35839,-3.26277
20.20000,-3.36706,-3.27556
20.25000,-3.37519,-3.28498
20.30000,-3.38333,-3.29651
20.35000,-3.39199,-3.30481
20.40000,-3.40013,-3.31849
20.45000,-3.40839,-3.32579
20.50000,-3.41679,-3.33892
20.55000,-3.42519,-3.34539
20.60000,-3.43332,-3.35916
20.65000,-3.44159,-3.36668
20.70000,-3.45026,-3.37948
20.75000,-3.45852,-3.38702
20.80000,-3.46692,-3.40141
20.85000,-3.47532,-3.40861
20.90000,-3.48359,-3.41927
20.95000,-3.49199,-3.42918
21.00000,-3.50026,-3.44049
21.05000,-3.50866,-3.44768
21.10000,-3.51692,-3.45921
21.15000,-3.52532,-3.46920
21.20000,-3.53346,-3.47904
21.25000,-3.54199,-3.48893
21.30000,-3.55026,-3.49865
21.35000,-3.55839,-3.50787
21.40000,-3.56679,-3.51782
21.45000,-3.57519,-3.52728
21.50000,-3.58332,-3.53677
21.55000,-3.59172,-3.54543
21.60000,-3.60039,-3.55753
21.65000,-3.60852,-3.56688
21.70000,-3.61679,-3.57690
21.75000,-3.62546,-3.58555
21.80000,-3.63359,-3.59743
21.85000,-3.64186,-3.60411
21.90000,-3.65026,-3.61635
21.95000,-3.65852,-3.62266
22.00000,-3.66666,-3.63400
22.05000,-3.67492,-3.64091
22.10000,-3.68332,-3.65208
22.15000,-3.69186,-3.66061
22.20000,-3.70012,-3.67122
22.25000,-3.70826,-3.67947
22.30000,-3.71692,-3.68906
22.35000,-3.72532,-3.69831
22.40000,-3.73332,-3.70811
22.45000,-3.74186,-3.71614
22.50000,-3.75039,-3.72615
22.55000,-3.75852,-3.73569
22.60000,-3.76679,-3.74363
22.65000,-3.77532,-3.75281
22.70000,-3.78359,-3.76315
22.75000,-3.79172,-3.77171
22.80000,-3.80012,-3.77952
22.85000,-3.80852,-3.79029
22.90000,-3.81679,-3.79693
22.95000,-3.82492,-3.80899
23.00000,-3.83332,-3.81228
23.05000,-3.84159,-3.82474
23.10000,-3.84999,-3.83146
23.15000,-3.85839,-3.84223
23.20000,-3.86692,-3.84838
23.25000,-3.87532,-3.85885
23.30000,-3.88346,-3.86760
23.35000,-3.89186,-3.87491
23.40000,-3.90026,-3.88368
23.45000,-3.90839,-3.89330
23.50000,-3.91666,-3.90165
23.55000,-3.92532,-3.90836
23.60000,-3.93359,-3.91931
23.65000,-3.94172,-3.92583
23.70000,-3.95012,-3.93303
23.75000,-3.95852,-3.94221
23.80000,-3.96666,-3.94892
23.85000,-3.97492,-3.95605
23.90000,-3.98346,-3.96509
23.95000,-3.99172,-3.97196
24.00000,-4.00012,-3.98098
24.05000,-4.00866,-3.98781
24.10000,-4.01692,-3.99806
24.15000,-4.02519,-4.00323
24.20000,-4.03359,-4.01346
24.25000,-4.04199,-4.01963
24.30000,-4.05039,-4.02797
24.35000,-4.05866,-4.03568
24.40000,-4.06679,-4.04234
24.45000,-4.07532,-4.04872
24.50000,-4.08359,-4.05656
24.55000,-4.09159,-4.06270
24.60000,-4.10026,-4.06978
24.65000,-4.10852,-4.07856
24.70000,-4.11666,-4.08598
24.75000,-4.12519,-4.09310
24.80000,-4.13372,-4.10101
24.85000,-4.14186,-4.10780
24.90000,-4.15012,-4.11412
24.95000,-4.15866,-4.12154
25.00000,-4.16692,-4.12864
25.05000,-4.17519,-4.13437
25.10000,-4.18359,-4.14089
25.15000,-4.19199,-4.14790
25.20000,-4.20026,-4.15460
25.25000,-4.20852,-4.15961
25.30000,-4.21679,-4.16678
25.35000,-4.22519,-4.17246
25.40000,-4.23332,-4.17902
25.45000,-4.24146,-4.18299
25.50000,-4.25012,-4.19005
25.55000,-4.25866,-4.19672
25.60000,-4.26679,-4.20319
25.65000,-4.27519,-4.20739
25.70000,-4.28372,-4.21260
25.75000,-4.29199,-4.22165
25.80000,-4.30012,-4.22245
25.85000,-4.30852,-4.22959
25.90000,-4.31679,-4.23328
25.95000,-4.32492,-4.24046
26.00000,-4.33319,-4.24210
26.05000,-4.34172,-4.25028
26.10000,-4.34999,-4.25486
26.15000,-4.35839,-4.26224
26.20000,-4.36679,-4.26621
26.25000,-4.37519,-4.27175
26.30000,-4.38346,-4.27878
26.35000,-4.39186,-4.28381
26.40000,-4.40026,-4.28878
26.45000,-4.40866,-4.29550
26.50000,-4.41692,-4.30199
26.55000,-4.42519,-4.30569
26.60000,-4.43372,-4.31310
26.65000,-4.44186,-4.31770
26.70000,-4.45012,-4.32566
26.75000,-4.45866,-4.32805
26.80000,-4.46692,-4.33505
26.85000,-4.47492,-4.33897
26.90000,-4.48346,-4.34609
26.95000,-4.49186,-4.35085
27.00000,-4.49999,-4.35736
27.05000,-4.50826,-4.35939
27.10000,-4.51679,-4.37058
27.15000,-4.52519,-4.37014
27.20000,-4.53332,-4.38092
27.25000,-4.54186,-4.38157
27.30000,-4.55012,-4.39042
27.35000,-4.55852,-4.39191
27.40000,-4.56692,-4.40088
27.45000,-4.57519,-4.40156
27.50000,-4.58359,-4.41052
27.55000,-4.59199,-4.41097
27.60000,-4.60012,-4.42052
27.65000,-4.60866,-4.41975
27.70000,-4.61692,-4.43153
27.75000,-4.62492,-4.42656
27.80000,-4.63359,-4.43890
27.85000,-4.64199,-4.43929
27.90000,-4.64999,-4.44525
27.95000,-4.65852,-4.44626
28.00000,-4.66719,-4.45494
28.05000,-4.67532,-4.45632
28.10000,-4.68346,-4.46229
28.15000,-4.69212,-4.46292
28.20000,-4.70026,-4.47114
28.25000,-4.70852,-4.47139
28.30000,-4.71692,-4.47851
28.35000,-4.72532,-4.47740
28.40000,-4.73359,-4.48662
28.45000,-4.74185,-4.48863
28.50000,-4.75012,-4.48767
28.55000,-4.75852,-4.49585
28.60000,-4.76679,-4.49812
28.65000,-4.77492,-4.49844
28.70000,-4.78346,-4.50582
28.75000,-4.79199,-4.50805
28.80000,-4.79999,-4.51014
28.85000,-4.80852,-4.51491
28.90000,-4.81706,-4.51382
28.95000,-4.82519,-4.52252
29.00000,-4.83345,-4.52194
29.05000,-4.84199,-4.52575
29.10000,-4.85025,-4.52850
29.15000,-4.85839,-4.53460
29.20000,-4.86679,-4.53146
29.25000,-4.87519,-4.53976
29.30000,-4.88332,-4.53889
29.35000,-4.89159,-4.54293
29.40000,-4.89999,-4.54757
29.45000,-4.90825,-4.54980
29.50000,-4.91652,-4.54613
29.55000,-4.92505,-4.56205
29.60000,-4.93345,-4.55022
29.65000,-4.94185,-4.56592
29.70000,-4.95012,-4.56619
29.75000,-4.95852,-4.56270
29.80000,-4.96705,-4.57171
29.85000,-4.97519,-4.57397
29.90000,-4.98332,-4.57388
29.95000,-4.99199,-4.57782
30.00000,-5.00025,-4.58095
30.05000,-5.00839,-4.58362
30.10000,-5.01679,-4.58314
30.15000,-5.02532,-4.58906
30.20000,-5.03345,-4.59391
30.25000,-5.04172,-4.58791
30.30000,-5.05025,-4.59891
30.35000,-5.05839,-4.59564
30.40000,-5.06665,-4.60158
30.45000,-5.07532,-4.60059
30.50000,-5.08359,-4.60680
30.55000,-5.09185,-4.60712
30.60000,-5.10025,-4.61005
30.65000,-5.10865,-4.61413
30.70000,-5.11705,-4.61407
30.75000,-5.12532,-4.61852
30.80000,-5.13345,-4.62069
30.85000,-5.14199,-4.62168
30.90000,-5.15025,-4.62704
30.95000,-5.15825,-4.62348
31.00000,-5.16692,-4.63013
31.05000,-5.17519,-4.63376
31.10000,-5.18319,-4.62773
31.15000,-5.19172,-4.63679
31.20000,-5.20039,-4.63442
31.25000,-5.20852,-4.64091
31.30000,-5.21679,-4.63656
31.35000,-5.22532,-4.64227
31.40000,-5.23359,-4.64380
31.45000,-5.24185,-4.64274
31.50000,-5.25025,-4.64457
31.55000,-5.25865,-4.64731
31.60000,-5.26692,-4.64804
31.65000,-5.27505,-4.64967
31.70000,-5.28332,-4.65192
31.75000,-5.29185,-4.64904
31.80000,-5.30012,-4.65760
31.85000,-5.30825,-4.65515
31.90000,-5.31679,-4.65608
31.95000,-5.32519,-4.65954
32.00000,-5.33332,-4.66488
32.05000,-5.34172,-4.65769
32.10000,-5.35025,-4.66837
32.15000,-5.35852,-4.66462
32.20000,-5.36679,-4.66743
32.25000,-5.37519,-4.67043
32.30000,-5.38345,-4.66873
32.35000,-5.39172,-4.67165
32.40000,-5.40012,-4.67229
32.45000,-5.40852,-4.67250
32.50000,-5.41679,-4.67528
32.55000,-5.42492,-4.67645
32.60000,-5.43345,-4.67889
32.65000,-5.44172,-4.67813
32.70000,-5.44999,-4.68197
32.75000,-5.45839,-4.68503
32.80000,-5.46679,-4.68690
32.85000,-5.47519,-4.68654
32.90000,-5.48345,-4.69167
32.95000,-5.49185,-4.68977
33.00000,-5.50025,-4.69434
33.05000,-5.50852,-4.69620
33.10000,-5.51679,-4.69808
33.15000,-5.52532,-4.69696
33.20000,-5.53359,-4.70493
33.25000,-5.54172,-4.70253
33.30000,-5.55012,-4.70666
33.35000,-5.55865,-4.70842
33.40000,-5.56665,-4.70811
33.45000,-5.57492,-4.71236
33.50000,-5.58345,-4.71422
33.55000,-5.59185,-4.71631
33.60000,-5.60012,-4.71677
33.65000,-5.60852,-4.71972
33.70000,-5.61692,-4.72254
33.75000,-5.62532,-4.72363
33.80000,-5.63359,-4.72630
33.85000,-5.64199,-4.72697
33.90000,-5.65025,-4.72881
33.95000,-5.65865,-4.73276
34.00000,-5.66692,-4.73219
34.05000,-5.67545,-4.73612
34.10000,-5.68372,-4.73766
34.15000,-5.69172,-4.74046
34.20000,-5.70025,-4.74018
34.25000,-5.70865,-4.74552
34.30000,-5.71665,-4.74408
34.35000,-5.72519,-4.74836
34.40000,-5.73359,-4.75114
34.45000,-5.74185,-4.75235
34.50000,-5.75012,-4.75454
34.55000,-5.75865,-4.75752
34.60000,-5.76692,-4.75955
34.65000,-5.77519,-4.76272
34.70000,-5.78372,-4.76479
34.75000,-5.79185,-4.76562
34.80000,-5.80012,-4.77014
34.85000,-5.80852,-4.77213
34.90000,-5.81679,-4.77298
34.95000,-5.82519,-4.77412
35.00000,-5.83332,-4.77839
35.05000,-5.84145,-4.78020
35.10000,-5.85012,-4.78244
35.15000,-5.85865,-4.78514
35.20000,-5.86679,-4.78798
35.25000,-5.87519,-4.79057
35.30000,-5.88372,-4.79357
35.35000,-5.89172,-4.79521
35.40000,-5.90012,-4.79574
35.45000,-5.90865,-4.79960
35.50000,-5.91692,-4.80230
35.55000,-5.92505,-4.80323
35.60000,-5.93345,-4.80312
35.65000,-5.94185,-4.80889
35.70000,-5.95012,-4.80854
35.75000,-5.95839,-4.81297
35.80000,-5.96679,-4.81269
35.85000,-5.97505,-4.81590
35.90000,-5.98332,-4.81511
35.95000,-5.99185,-4.82133
36.00000,-6.00025,-4.82179
36.05000,-6.00865,-4.82576
36.10000,-6.01679,-4.82767
36.15000,-6.02519,-4.82934
36.20000,-6.03372,-4.83231
36.25000,-6.04185,-4.83483
36.30000,-6.05012,-4.83623
36.35000,-6.05865,-4.83724
36.40000,-6.06679,-4.84295
36.45000,-6.07492,-4.83914
36.50000,-6.08345,-4.85021
36.55000,-6.09185,-4.84287
36.60000,-6.09998,-4.85438
36.65000,-6.10825,-4.84952
36.70000,-6.11679,-4.85863
36.75000,-6.12505,-4.85710
36.80000,-6.13332,-4.86474
36.85000,-6.14185,-4.86079
36.90000,-6.15038,-4.86918
36.95000,-6.15865,-4.86648
37.00000,-6.16705,-4.87297
37.05000,-6.17532,-4.87117
37.10000,-6.18359,-4.87612
37.15000,-6.19198,-4.87494
37.20000,-6.20012,-4.87794
37.25000,-6.20865,-4.87880
37.30000,-6.21692,-4.88134
37.35000,-6.22492,-4.88238
37.40000,-6.23345,-4.88341
37.45000,-6.24185,-4.88601
37.50000,-6.24985,-4.88758
37.55000,-6.25838,-4.88893
37.60000,-6.26705,-4.89227
37.65000,-6.27518,-4.89372
37.70000,-6.28345,-4.89534
37.75000,-6.29212,-4.89709
37.80000,-6.30025,-4.89842
37.85000,-6.30852,-4.89982
37.90000,-6.31692,-4.90284
37.95000,-6.32532,-4.90375
38.00000,-6.33358,-4.90628
38.05000,-6.34185,-4.90917
38.10000,-6.35012,-4.90992
38.15000,-6.35852,-4.91289
38.20000,-6.36692,-4.91499
38.25000,-6.37492,-4.92089
38.30000,-6.38345,-4.91721
38.35000,-6.39198,-4.92593
38.40000,-6.39998,-4.92348
38.45000,-6.40852,-4.93136
38.50000,-6.41705,-4.92753
38.55000,-6.42518,-4.93801
38.60000,-6.43345,-4.93263
38.65000,-6.44198,-4.94035
38.70000,-6.45025,-4.94112
38.75000,-6.45838,-4.94380
38.80000,-6.46678,-4.94460
38.85000,-6.47518,-4.95166
38.90000,-6.48332,-4.94970
38.95000,-6.49172,-4.95432
39.00000,-6.49998,-4.95856
39.05000,-6.50825,-4.95912
39.10000,-6.51665,-4.96286
39.15000,-6.52505,-4.96650
39.20000,-6.53345,-4.96747
39.25000,-6.54185,-4.97320
39.30000,-6.55012,-4.97301
39.35000,-6.55838,-4.97640
39.40000,-6.56692,-4.98259
39.45000,-6.57518,-4.98144
39.50000,-6.58332,-4.98925
39.55000,-6.59198,-4.98627
39.60000,-6.60025,-4.99707
39.65000,-6.60838,-4.99425
39.70000,-6.61678,-5.00062
39.75000,-6.62518,-5.00223
39.80000,-6.63332,-5.00719
39.85000,-6.64158,-5.00963
39.90000,-6.65025,-5.01346
39.95000,-6.65852,-5.01695
40.00000,-6.66678,-5.02275
40.05000,-6.67532,-5.02222
40.10000,-6.68358,-5.03068
40.15000,-6.69185,-5.02774
40.20000,-6.70025,-5.03654
40.25000,-6.70852,-5.03703
40.30000,-6.71692,-5.04273
40.35000,-6.72532,-5.04328
40.40000,-6.73345,-5.04931
40.45000,-6.74198,-5.05018
40.50000,-6.75012,-5.05600
40.55000,-6.75825,-5.05932
40.60000,-6.76692,-5.06190
40.65000,-6.77532,-5.06710
40.70000,-6.78345,-5.07160
40.75000,-6.79185,-5.07489
40.80000,-6.80038,-5.08062
40.85000,-6.80838,-5.08156
40.90000,-6.81665,-5.08891
40.95000,-6.82545,-5.08929
41.00000,-6.83358,-5.09672
41.05000,-6.84198,-5.10103
41.10000,-6.85038,-5.10077
41.15000,-6.85865,-5.10898
41.20000,-6.86692,-5.10990
41.25000,-6.87518,-5.11453
41.30000,-6.88345,-5.11763
41.35000,-6.89172,-5.12152
41.40000,-6.89998,-5.12535
41.45000,-6.90825,-5.12999
41.50000,-6.91678,-5.13255
41.55000,-6.92518,-5.13881
41.60000,-6.93332,-5.14123
41.65000,-6.94185,-5.14802
41.70000,-6.95038,-5.14897
41.75000,-6.95852,-5.15787
41.80000,-6.96665,-5.15767
41.85000,-6.97532,-5.16378
41.90000,-6.98345,-5.16756
41.95000,-6.99185,-5.17191
42.00000,-7.00025,-5.17687
42.05000,-7.00865,-5.17995
42.10000,-7.01678,-5.18237
42.15000,-7.02505,-5.18840
42.20000,-7.03345,-5.18999
42.25000,-7.04172,-5.19577
42.30000,-7.05012,-5.19821
42.35000,-7.05838,-5.20413
42.40000,-7.06692,-5.20747
42.45000,-7.07518,-5.20923
42.50000,-7.08345,-5.22023
42.55000,-7.09185,-5.21932
42.60000,-7.10025,-5.22645
42.65000,-7.10852,-5.22980
42.70000,-7.11665,-5.23445
42.75000,-7.12532,-5.23679
42.80000,-7.13358,-5.24780
42.85000,-7.14172,-5.24422
42.90000,-7.15012,-5.25340
42.95000,-7.15852,-5.25691
43.00000,-7.16665,-5.26167
43.05000,-7.17505,-5.26384
43.10000,-7.18358,-5.27077
43.15000,-7.19172,-5.27318
43.20000,-7.19998,-5.27784
43.25000,-7.20852,-5.28675
43.30000,-7.21692,-5.28403
43.35000,-7.22518,-5.29365
43.40000,-7.23358,-5.29648
43.45000,-7.24185,-5.29972
43.50000,-7.25025,-5.30519
43.55000,-7.25852,-5.30955
43.60000,-7.26665,-5.31195
43.65000,-7.27518,-5.31692
43.70000,-7.28358,-5.32058
43.75000,-7.29172,-5.32693
43.80000,-7.30025,-5.32783
43.85000,-7.30852,-5.33588
43.90000,-7.31665,-5.33562
43.95000,-7.32518,-5.34307
44.00000,-7.33372,-5.34579
44.05000,-7.34172,-5.34928
44.10000,-7.35012,-5.35406
44.15000,-7.35865,-5.35559
44.20000,-7.36678,-5.36163
44.25000,-7.37518,-5.36373
44.30000,-7.38372,-5.36812
44.35000,-7.39198,-5.37204
44.40000,-7.40025,-5.37454
44.45000,-7.40852,-5.37791
44.50000,-7.41692,-5.38149
44.55000,-7.42532,-5.38502
44.60000,-7.43358,-5.38748
44.65000,-7.44172,-5.39312
44.70000,-7.45025,-5.39474
44.75000,-7.45865,-5.39953
44.80000,-7.46678,-5.40254
44.85000,-7.47518,-5.40723
44.90000,-7.48372,-5.41044
44.95000,-7.49185,-5.41561
45.00000,-7.50011,-5.41527
45.05000,-7.50865,-5.42222
45.10000,-7.51678,-5.42337
45.15000,-7.52505,-5.42891
45.20000,-7.53332,-5.43029
45.25000,-7.54185,-5.43757
45.30000,-7.54998,-5.43771
45.35000,-7.55825,-5.44598
45.40000,-7.56678,-5.44478
45.45000,-7.57491,-5.45341
45.50000,-7.58332,-5.45384
45.55000,-7.59171,-5.46057
45.60000,-7.60011,-5.46188
45.65000,-7.60851,-5.46998
45.70000,-7.61678,-5.46733
45.75000,-7.62505,-5.47624
45.80000,-7.63358,-5.47715
45.85000,-7.64185,-5.48338
45.90000,-7.65011,-5.48436
45.95000,-7.65865,-5.49024
46.00000,-7.66691,-5.49248
46.05000,-7.67505,-5.49623
46.10000,-7.68345,-5.49645
46.15000,-7.69185,-5.50466
46.20000,-7.69985,-5.50226
46.25000,-7.70825,-5.51014
46.30000,-7.71691,-5.51014
46.35000,-7.72505,-5.51739
46.40000,-7.73345,-5.51801
46.45000,-7.74198,-5.52484
46.50000,-7.75025,-5.52772
46.55000,-7.75865,-5.53243
46.60000,-7.76691,-5.53497
46.65000,-7.77531,-5.53968
46.70000,-7.78371,-5.54349
46.75000,-7.79198,-5.54776
46.80000,-7.80011,-5.55052
46.85000,-7.80878,-5.55582
46.90000,-7.81705,-5.55843
46.95000,-7.82505,-5.56284
47.00000,-7.83358,-5.56507
47.05000,-7.84185,-5.56953
47.10000,-7.84998,-5.57360
47.15000,-7.85851,-5.57683
47.20000,-7.86705,-5.58292
47.25000,-7.87518,-5.58371
47.30000,-7.88345,-5.59117
47.35000,-7.89198,-5.59301
47.40000,-7.90025,-5.59874
47.45000,-7.90851,-5.59942
47.50000,-7.91705,-5.60672
47.55000,-7.92531,-5.60807
47.60000,-7.93358,-5.61506
47.65000,-7.94185,-5.61480
47.70000,-7.95011,-5.62471
47.75000,-7.95865,-5.62194
47.80000,-7.96691,-5.63266
47.85000,-7.97491,-5.63050
47.90000,-7.98358,-5.63851
47.95000,-7.99185,-5.63958
48.00000,-8.00011,-5.64723
48.05000,-8.00851,-5.64700
48.10000,-8.01705,-5.65581
48.15000,-8.02518,-5.65560
48.20000,-8.03345,-5.66222
48.25000,-8.04211,-5.66248
48.30000,-8.05025,-5.67115
48.35000,-8.05838,-5.67128
48.40000,-8.06678,-5.67540
48.45000,-8.07505,-5.67765
48.50000,-8.08331,-5.68328
48.55000,-8.09171,-5.68597
48.60000,-8.10011,-5.69189
48.65000,-8.10838,-5.69299
48.70000,-8.11665,-5.69841
48.75000,-8.12505,-5.70078
48.80000,-8.13345,-5.70606
48.85000,-8.14185,-5.70974
48.90000,-8.15011,-5.71572
48.95000,-8.15865,-5.71554
49.00000,-8.16691,-5.72342
49.05000,-8.17518,-5.72880
49.10000,-8.18345,-5.72946
49.15000,-8.19198,-5.73324
49.20000,-8.20025,-5.74134
49.25000,-8.20838,-5.74169
49.30000,-8.21678,-5.74461
49.35000,-8.22518,-5.74970
49.40000,-8.23318,-5.75311
49.45000,-8.24158,-5.75679
49.50000,-8.25025,-5.76127
49.55000,-8.25851,-5.76663
49.60000,-8.26678,-5.76932
49.65000,-8.27531,-5.77477
49.70000,-8.28358,-5.77907
49.75000,-8.29185,-5.78250
49.80000,-8.30025,-5.78651
49.85000,-8.30851,-5.79021
49.90000,-8.31691,-5.79573
49.95000,-8.32531,-5.79988
50.00000,-8.33345,-5.80220
50.05000,-8.34198,-5.80906
50.10000,-8.35011,-5.81063
50.15000,-8.35825,-5.81552
50.20000,-8.36678,-5.81759
50.25000,-8.37518,-5.82619
50.30000,-8.38331,-5.82691
50.35000,-8.39171,-5.83346
50.40000,-8.40038,-5.83692
50.45000,-8.40851,-5.84373
50.50000,-8.41691,-5.84667
50.55000,-8.42545,-5.85223
50.60000,-8.43358,-5.85498
50.65000,-8.44185,-5.86396
50.70000,-8.45038,-5.86163
50.75000,-8.45865,-5.87403
50.80000,-8.46678,-5.86948
50.85000,-8.47505,-5.88223
50.90000,-8.48331,-5.87903
50.95000,-8.49185,-5.89104
51.00000,-8.50011,-5.89101
51.05000,-8.50825,-5.89924
51.10000,-8.51678,-5.89830
51.15000,-8.52518,-5.91168
51.20000,-8.53345,-5.90866
51.25000,-8.54185,-5.91968
51.30000,-8.55038,-5.92157
51.35000,-8.55851,-5.92818
51.40000,-8.56678,-5.93048
51.45000,-8.57545,-5.93571
51.50000,-8.58358,-5.94177
51.55000,-8.59171,-5.94604
51.60000,-8.60011,-5.95048
51.65000,-8.60851,-5.95397
51.70000,-8.61665,-5.96207
51.75000,-8.62505,-5.96276
51.80000,-8.63345,-5.97197
51.85000,-8.64171,-5.97370
51.90000,-8.64998,-5.97967
51.95000,-8.65838,-5.98459
52.00000,-8.66678,-5.99288
52.05000,-8.67518,-5.99304
52.10000,-8.68345,-6.00424
52.15000,-8.69171,-6.00229
52.20000,-8.70025,-6.01504
52.25000,-8.70838,-6.01123
52.30000,-8.71665,-6.02237
52.35000,-8.72531,-6.02445
52.40000,-8.73358,-6.03043
52.45000,-8.74171,-6.03394
52.50000,-8.75011,-6.03877
52.55000,-8.75865,-6.04319
52.60000,-8.76665,-6.05029
52.65000,-8.77491,-6.05055
52.70000,-8.78358,-6.05763
52.75000,-8.79185,-6.06308
52.80000,-8.79998,-6.06703
52.85000,-8.80851,-6.07241
52.90000,-8.81691,-6.07735
52.95000,-8.82531,-6.08275
53.00000,-8.83371,-6.08663
53.05000,-8.84198,-6.08927
53.10000,-8.85038,-6.08577
53.15000,-8.85865,-6.05940
53.20000,-8.86678,-6.06909
53.25000,-8.87531,-6.07117
53.30000,-8.88345,-6.08256
53.35000,-8.89158,-6.08234
53.40000,-8.90024,-6.09100
53.45000,-8.90851,-6.09677
53.50000,-8.91665,-6.10260
53.55000,-8.92518,-6.10403
53.60000,-8.93371,-6.11708
53.65000,-8.94185,-6.11800
53.70000,-8.95011,-6.12522
53.75000,-8.95865,-6.12935
53.80000,-8.96678,-6.13771
53.85000,-8.97518,-6.13959
53.90000,-8.98371,-6.14889
53.95000,-8.99198,-6.15210
54.00000,-9.00011,-6.15761
54.05000,-9.00851,-6.16419
54.10000,-9.01678,-6.16607
54.15000,-9.02518,-6.17420
54.20000,-9.03344,-6.17720
54.25000,-9.04158,-6.18581
54.30000,-9.05011,-6.18620
54.35000,-9.05851,-6.19596
54.40000,-9.06665,-6.19745
54.45000,-9.07518,-6.20635
54.50000,-9.08371,-6.20738
54.55000,-9.09184,-6.21685
54.60000,-9.10011,-6.21602
54.65000,-9.10864,-6.22565
54.70000,-9.11691,-6.22786
54.75000,-9.12504,-6.23399
54.80000,-9.13344,-6.23527
54.85000,-9.14184,-6.24342
54.90000,-9.14998,-6.24364
54.95000,-9.15838,-6.25335
55.00000,-9.16678,-6.25279
55.05000,-9.17504,-6.26101
55.10000,-9.18331,-6.26236
55.15000,-9.19171,-6.27077
55.20000,-9.20011,-6.27187
55.25000,-9.20851,-6.27960
55.30000,-9.21678,-6.28257
55.35000,-9.22518,-6.28736
55.40000,-9.23358,-6.29207
55.45000,-9.24184,-6.29872
55.50000,-9.25011,-6.29960
55.55000,-9.25864,-6.30663
55.60000,-9.26691,-6.31012
55.65000,-9.27491,-6.31523
55.70000,-9.28344,-6.31712
55.75000,-9.29184,-6.32525
55.80000,-9.29998,-6.32665
55.85000,-9.30824,-6.33294
55.90000,-9.31691,-6.33646
55.95000,-9.32518,-6.34303
56.00000,-9.33331,-6.34525
56.05000,-9.34184,-6.35288
56.10000,-9.35024,-6.35605
56.15000,-9.35851,-6.36081
56.20000,-9.36678,-6.36481
56.25000,-9.37518,-6.36946
56.30000,-9.38358,-6.37391
56.35000,-9.39198,-6.37940
56.40000,-9.39998,-6.38193
56.45000,-9.40851,-6.38655
56.50000,-9.41678,-6.39179
56.55000,-9.42478,-6.39579
56.60000,-9.43331,-6.39891
56.65000,-9.44171,-6.40534
56.70000,-9.44984,-6.41042
56.75000,-9.45838,-6.41459
56.80000,-9.46704,-6.42179
56.85000,-9.47518,-6.42431
56.90000,-9.48344,-6.42947
56.95000,-9.49211,-6.43517
57.00000,-9.50038,-6.44197
57.05000,-9.50878,-6.44399
57.10000,-9.51718,-6.44862
57.15000,-9.52531,-6.45239
57.20000,-9.53344,-6.45733
57.25000,-9.54184,-6.46021
57.30000,-9.55011,-6.46451
57.35000,-9.55864,-6.46981
57.40000,-9.56691,-6.47658
57.45000,-9.57491,-6.47687
57.50000,-9.58344,-6.48386
57.55000,-9.59184,-6.48714
57.60000,-9.59998,-6.49627
57.65000,-9.60838,-6.49570
57.70000,-9.61691,-6.50486
57.75000,-9.62504,-6.50634
57.80000,-9.63331,-6.51375
57.85000,-9.64198,-6.51465
57.90000,-9.65038,-6.52602
57.95000,-9.65851,-6.52473
58.00000,-9.66691,-6.53079
58.05000,-9.67518,-6.53263
58.10000,-9.68318,-6.53952
58.15000,-9.69144,-6.54026
58.20000,-9.69998,-6.54595
58.25000,-9.70838,-6.54921
58.30000,-9.71678,-6.55623
58.35000,-9.72504,-6.56004
58.40000,-9.73358,-6.56412
58.45000,-9.74198,-6.56896
58.50000,-9.75024,-6.57506
58.55000,-9.75851,-6.57696
58.60000,-9.76704,-6.58455
58.65000,-9.77518,-6.58816
58.70000,-9.78344,-6.59088
58.75000,-9.79198,-6.59458
58.80000,-9.80011,-6.60273
58.85000,-9.80824,-6.60255
58.90000,-9.81664,-6.60699
58.95000,-9.82531,-6.61187
59.00000,-9.83331,-6.61691
59.05000,-9.84158,-6.61991
59.10000,-9.85024,-6.62581
59.15000,-9.85851,-6.62961
59.20000,-9.86691,-6.63552
59.25000,-9.87531,-6.63753
59.30000,-9.88358,-6.64431
59.35000,-9.89198,-6.64715
59.40000,-9.90024,-6.65308
59.45000,-9.90864,-6.65766
59.50000,-9.91718,-6.66335
59.55000,-9.92531,-6.66637
59.60000,-9.93344,-6.66829
59.65000,-9.94198,-6.67743
59.70000,-9.95024,-6.67786
59.75000,-9.95824,-6.68431
59.80000,-9.96678,-6.68547
59.85000,-9.97531,-6.69278
59.90000,-9.98331,-6.69180
59.95000,-9.99171,-6.70137
60.00000,-10.00038,-6.70204
60.05000,-10.00851,-6.70675
60.10000,-10.01678,-6.70766
60.15000,-10.02518,-6.71568
60.20000,-10.03344,-6.71398
60.25000,-10.04171,-6.71942
60.30000,-10.05011,-6.72216
60.35000,-10.05851,-6.72758
60.40000,-10.06691,-6.72721
60.45000,-10.07518,-6.73308
60.50000,-10.08344,-6.73529
60.55000,-10.09184,-6.73689
60.60000,-10.10011,-6.74272
60.65000,-10.10824,-6.74455
60.70000,-10.11678,-6.74593
60.75000,-10.12531,-6.75184
60.80000,-10.13331,-6.75621
60.85000,-10.14184,-6.75863
60.90000,-10.15038,-6.75996
60.95000,-10.15851,-6.76884
61.00000,-10.16691,-6.76711
61.05000,-10.17544,-6.77331
61.10000,-10.18358,-6.77551
61.15000,-10.19171,-6.77849
61.20000,-10.20011,-6.77767
61.25000,-10.20851,-6.78552
61.30000,-10.21664,-6.78591
61.35000,-10.22491,-6.79264
61.40000,-10.23344,-6.79098
61.45000,-10.24171,-6.79862
61.50000,-10.24998,-6.79976
61.55000,-10.25837,-6.80605
61.60000,-10.26678,-6.80702
61.65000,-10.27517,-6.81133
61.70000,-10.28331,-6.81229
61.75000,-10.29171,-6.81563
61.80000,-10.30024,-6.81666
61.85000,-10.30837,-6.82349
61.90000,-10.31678,-6.82276
61.95000,-10.32544,-6.82806
62.00000,-10.33371,-6.83025
62.05000,-10.34171,-6.83323
62.10000,-10.35024,-6.83389
62.15000,-10.35864,-6.83612
62.20000,-10.36664,-6.83739
62.25000,-10.37491,-6.84843
62.30000,-10.38358,-6.83220
62.35000,-10.39184,-6.85986
62.40000,-10.39997,-6.84798
62.45000,-10.40864,-6.86000
62.50000,-10.41691,-6.85629
62.55000,-10.42517,-6.86528
62.60000,-10.43357,-6.85819
62.65000,-10.44184,-6.87647
62.70000,-10.45024,-6.86668
62.75000,-10.45864,-6.87447
62.80000,-10.46677,-6.87722
62.85000,-10.47531,-6.87734
62.90000,-10.48357,-6.88400
62.95000,-10.49157,-6.88530
63.00000,-10.50011,-6.88045
63.05000,-10.50851,-6.89251
63.10000,-10.51664,-6.88938
63.15000,-10.52504,-6.89226
63.20000,-10.53371,-6.89413
63.25000,-10.54184,-6.90018
63.30000,-10.55011,-6.89915
63.35000,-10.55864,-6.90404
63.40000,-10.56691,-6.90264
63.45000,-10.57517,-6.90694
63.50000,-10.58357,-6.90939
63.55000,-10.59184,-6.90980
63.60000,-10.60011,-6.91171
63.65000,-10.60837,-6.91470
63.70000,-10.61664,-6.91137
63.75000,-10.62517,-6.92251
63.80000,-10.63344,-6.91544
63.85000,-10.64157,-6.92612
63.90000,-10.65024,-6.91844
63.95000,-10.65851,-6.92871
64.00000,-10.66664,-6.92474
64.05000,-10.67517,-6.93141
64.10001,-10.68371,-6.92733
64.15000,-10.69171,-6.93220
64.20000,-10.69997,-6.93239
64.25000,-10.70851,-6.93582
64.30000,-10.71677,-6.93666
64.35001,-10.72504,-6.93851
64.40000,-10.73344,-6.94011
64.45000,-10.74184,-6.94374
64.50000,-10.75011,-6.94523
64.55000,-10.75837,-6.94716
64.60001,-10.76691,-6.94742
64.65000,-10.77504,-6.95157
64.70000,-10.78331,-6.94945
64.75000,-10.79171,-6.95582
64.80000,-10.80011,-6.95194
64.85001,-10.80851,-6.95968
64.90000,-10.81677,-6.95774
64.95000,-10.82517,-6.96428
65.00000,-10.83384,-6.96146
65.05000,-10.84197,-6.96448
65.10001,-10.85011,-6.96452
65.15000,-10.85864,-6.96485
65.20000,-10.86677,-6.97283
65.25000,-10.87491,-6.96217
65.30000,-10.88344,-6.96945
65.35001,-10.89184,-6.97067
65.40000,-10.89984,-6.97137
65.45000,-10.90797,-6.96499
65.50000,-10.91664,-6.97688
65.55000,-10.92504,-6.96957
65.60001,-10.93331,-6.98299
65.65000,-10.94184,-6.97569
65.70001,-10.95011,-6.98202
65.75000,-10.95851,-6.98443
65.80000,-10.96704,-6.98673
65.85001,-10.97544,-6.98573
65.90000,-10.98384,-6.99108
65.95001,-10.99211,-6.99243
66.00000,-11.00011,-6.99237
66.05000,-11.00864,-6.99180
66.10001,-11.01677,-6.99464
66.15000,-11.02477,-6.99579
66.20001,-11.03331,-6.99633
66.25000,-11.04171,-6.99745
66.30000,-11.04997,-7.00324
66.35001,-11.05837,-7.00205
66.40000,-11.06704,-7.00874
66.45001,-11.07517,-7.00567
66.50000,-11.08344,-7.01538
66.55000,-11.09211,-7.00758
66.60001,-11.10037,-7.02042
66.65000,-11.10864,-7.00916
66.70001,-11.11691,-7.02519
66.75000,-11.12531,-7.01430
66.80000,-11.13357,-7.02468
66.85001,-11.14184,-7.02129
66.90000,-11.15011,-7.02491
66.95001,-11.15851,-7.02727
67.00000,-11.16691,-7.02579
67.05000,-11.17491,-7.03285
67.10001,-11.18344,-7.02856
67.15000,-11.19197,-7.03767
67.20001,-11.19997,-7.03289
67.25000,-11.20851,-7.03896
67.30000,-11.21704,-7.03851
67.35001,-11.22531,-7.04658
67.40000,-11.23344,-7.04154
67.45001,-11.24197,-7.04996
67.50000,-11.25011,-7.04443
67.55000,-11.25837,-7.05630
67.60001,-11.26664,-7.04626
67.65000,-11.27504,-7.06081
67.70001,-11.28331,-7.05419
67.75000,-11.29171,-7.06295
67.80000,-11.30011,-7.06086
67.85001,-11.30824,-7.06883
67.90000,-11.31664,-7.06685
67.95001,-11.32504,-7.07355
68.00000,-11.33357,-7.07351
68.05000,-11.34197,-7.08185
68.10001,-11.35024,-7.07845
68.15000,-11.35864,-7.08739
68.20001,-11.36717,-7.08528
68.25000,-11.37531,-7.09321
68.30000,-11.38357,-7.09219
68.35001,-11.39197,-7.09736
68.40000,-11.40024,-7.09931
68.45001,-11.40837,-7.10193
68.50000,-11.41677,-7.10305
68.55000,-11.42504,-7.10738
68.60001,-11.43331,-7.10849
68.65000,-11.44171,-7.11447
68.70001,-11.45024,-7.11684
68.75000,-11.45851,-7.12146
68.80000,-11.46691,-7.12547
68.85001,-11.47531,-7.13024
68.90000,-11.48371,-7.13695
68.95001,-11.49197,-7.13266
69.00000,-11.50024,-7.15050
69.05000,-11.50850,-7.13511
69.10001,-11.51704,-7.15597
69.15000,-11.52530,-7.14953
69.20001,-11.53331,-7.15813
69.25000,-11.54184,-7.15446
69.30000,-11.55011,-7.16815
69.35001,-11.55824,-7.16222
69.40000,-11.56677,-7.17066
69.45001,-11.57517,-7.17244
69.50000,-11.58330,-7.17934
69.55000,-11.59184,-7.17265
69.60001,-11.60037,-7.19250
69.65000,-11.60837,-7.18582
69.70001,-11.61664,-7.18610
69.75000,-11.62530,-7.19713
69.80000,-11.63357,-7.19680
69.85001,-11.64184,-7.20105
69.90000,-11.65037,-7.20168
69.95001,-11.65877,-7.20901
70.00000,-11.66691,-7.20685
70.05000,-11.67530,-7.21572
70.10001,-11.68357,-7.21140
70.15000,-11.69197,-7.22119
70.20001,-11.70024,-7.21847
70.25000,-11.70824,-7.22795
70.30000,-11.71691,-7.22316
70.35001,-11.72530,-7.23496
70.40000,-11.73344,-7.23332
70.45001,-11.74184,-7.23768
70.50000,-11.75037,-7.24116
70.55000,-11.75850,-7.24450
70.60001,-11.76677,-7.24619
70.65000,-11.77530,-7.25093
70.70001,-11.78357,-7.25464
70.75000,-11.79170,-7.25520
70.80000,-11.80010,-7.25940
70.85001,-11.80837,-7.26186
70.90000,-11.81650,-7.26499
70.95001,-11.82490,-7.26585
71.00000,-11.83344,-7.27298
71.05000,-11.84170,-7.27358
71.10001,-11.85010,-7.27799
71.15000,-11.85837,-7.28070
71.20001,-11.86677,-7.28261
71.25000,-11.87504,-7.28396
71.30000,-11.88344,-7.28949
71.35001,-11.89184,-7.28909
71.40000,-11.90024,-7.29426
71.45001,-11.90850,-7.29679
71.50000,-11.91677,-7.30025
71.55000,-11.92530,-7.29863
71.60001,-11.93344,-7.30668
71.65000,-11.94157,-7.30507
71.70001,-11.95010,-7.30937
71.75000,-11.95850,-7.31284
71.80000,-11.96664,-7.31574
71.85001,-11.97504,-7.31822
71.90000,-11.98357,-7.32141
71.95001,-11.99170,-7.32489
72.00000,-12.00010,-7.33066
72.05000,-12.00864,-7.32888
72.10001,-12.01690,-7.33854
72.15000,-12.02530,-7.33581
72.20001,-12.03357,-7.34204
72.25000,-12.04184,-7.34260
72.30000,-12.05037,-7.34388
72.35001,-12.05864,-7.34443
72.40000,-12.06677,-7.34742
72.45001,-12.07530,-7.34746
72.50000,-12.08357,-7.34988
72.55000,-12.09170,-7.34764
72.60001,-12.10024,-7.35348
72.65000,-12.10850,-7.35199
72.70001,-12.11664,-7.35653
72.75000,-12.12517,-7.35247
72.80000,-12.13370,-7.36672
72.85001,-12.14184,-7.35950
72.90000,-12.15010,-7.36684
72.95001,-12.15877,-7.36679
73.00000,-12.16704,-7.36894
73.05000,-12.17530,-7.37088
73.10001,-12.18370,-7.37050
73.15000,-12.19197,-7.37909
73.20001,-12.20010,-7.37029
73.25000,-12.20850,-7.38063
73.30000,-12.21664,-7.37820
73.35001,-12.22517,-7.38171
73.40000,-12.23357,-7.38262
73.45001,-12.24157,-7.38754
73.50000,-12.25010,-7.38402
73.55000,-12.25850,-7.39159
73.60001,-12.26664,-7.39062
73.65000,-12.27504,-7.39357
73.70001,-12.28357,-7.39356
73.75000,-12.29184,-7.40337
73.80000,-12.30010,-7.39829
73.85001,-12.30864,-7.40495
73.90000,-12.31690,-7.40705
73.95001,-12.32517,-7.41018
74.00000,-12.33357,-7.40883
74.05000,-12.34197,-7.41590
74.10001,-12.35010,-7.41393
74.15000,-12.35837,-7.42097
74.20001,-12.36677,-7.41706
74.25000,-12.37504,-7.42309
74.30000,-12.38330,-7.42464
74.35001,-12.39170,-7.42835
74.40000,-12.40024,-7.43015
74.45001,-12.40850,-7.43636
74.50000,-12.41677,-7.43929
74.55000,-12.42504,-7.43879
74.60001,-12.43357,-7.44645
74.65000,-12.44184,-7.44572
74.70001,-12.45010,-7.45437
74.75000,-12.45864,-7.44900
74.80000,-12.46690,-7.46140
74.85001,-12.47517,-7.45589
74.90000,-12.48357,-7.46299
74.95001,-12.49184,-7.46038
75.00000,-12.49997,-7.46848
75.05000,-12.50824,-7.46272
75.10001,-12.51690,-7.47596
75.15000,-12.52517,-7.47094
75.20001,-12.53344,-7.48375
75.25000,-12.54197,-7.47955
75.30000,-12.55024,-7.48925
75.35001,-12.55850,-7.48839
75.40000,-12.56690,-7.49615
75.45001,-12.57530,-7.49613
75.50000,-12.58357,-7.50207
75.55000,-12.59197,-7.50558
75.60001,-12.60024,-7.50887
75.65000,-12.60877,-7.50963
75.70001,-12.61690,-7.52150
75.75000,-12.62504,-7.51261
75.80000,-12.63357,-7.52742
75.85001,-12.64184,-7.51948
75.90000,-12.64997,-7.53441
75.95001,-12.65850,-7.52692
76.00000,-12.66717,-7.54063
76.05000,-12.67517,-7.53587
76.10001,-12.68357,-7.54694
76.15000,-12.69210,-7.54068
76.20001,-12.70037,-7.55093
76.25000,-12.70850,-7.54752
76.30000,-12.71704,-7.55185
76.35001,-12.72530,-7.55400
76.40000,-12.73357,-7.55521
76.45001,-12.74197,-7.56121
76.50000,-12.75024,-7.56013
76.55000,-12.75850,-7.56566
76.60001,-12.76690,-7.56411
76.65000,-12.77490,-7.57000
76.70001,-12.78357,-7.56688
76.75000,-12.79184,-7.57575
76.80000,-12.79997,-7.57586
76.85001,-12.80850,-7.57680
76.90000,-12.81704,-7.58163
76.95001,-12.82530,-7.58364
77.00000,-12.83357,-7.58672
77.05000,-12.84210,-7.58827
77.10001,-12.85024,-7.59161
77.15000,-12.85850,-7.59145
77.20001,-12.86677,-7.59103
77.25000,-12.87504,-7.59566
77.30000,-12.88317,-7.59435
77.35001,-12.89144,-7.59740
77.40000,-12.89997,-7.59990
77.45001,-12.90837,-7.60532
77.50000,-12.91663,-7.60485
77.55000,-12.92504,-7.61028
77.60001,-12.93343,-7.61116
77.65000,-12.94170,-7.61610
77.70001,-12.95010,-7.61383
77.75000,-12.95850,-7.62084
77.80000,-12.96690,-7.62182
77.85001,-12.97517,-7.62485
77.90000,-12.98343,-7.62888
77.95001,-12.99197,-7.62587
78.00000,-13.00023,-7.63547
78.05000,-13.00850,-7.63064
78.10001,-13.01690,-7.63430
78.15000,-13.02530,-7.63590
78.20001,-13.03330,-7.64244
78.25000,-13.04157,-7.63444
78.30000,-13.05023,-7.64906
78.35001,-13.05850,-7.64078
78.40000,-13.06690,-7.65539
78.45001,-13.07530,-7.64949
78.50000,-13.08357,-7.65716
78.55000,-13.09197,-7.65418
78.60001,-13.10037,-7.66455
78.65000,-13.10877,-7.65936
78.70001,-13.11703,-7.66784
78.75000,-13.12543,-7.67039
78.80000,-13.13343,-7.66970
78.85001,-13.14197,-7.67359
78.90000,-13.15023,-7.67358
78.95001,-13.15823,-7.67960
79.00000,-13.16690,-7.68044
79.05000,-13.17530,-7.68393
79.10001,-13.18330,-7.68876
79.15000,-13.19183,-7.68838
79.20001,-13.20050,-7.69592
79.25000,-13.20850,-7.69544
79.30000,-13.21677,-7.69895
79.35001,-13.22543,-7.70066
79.40000,-13.23357,-7.70554
79.45001,-13.24183,-7.70583
79.50000,-13.25037,-7.71030
79.55000,-13.25863,-7.71320
79.60001,-13.26690,-7.71351
79.65000,-13.27517,-7.71681
79.70001,-13.28343,-7.71875
79.75000,-13.29183,-7.72059
79.80000,-13.30010,-7.72390
79.85001,-13.30823,-7.72451
79.90000,-13.31690,-7.72668
79.95001,-13.32530,-7.72926
80.00000,-13.33343,-7.73111
80.05000,-13.34183,-7.73428
80.10001,-13.35037,-7.73599
80.15000,-13.35850,-7.73752
80.20001,-13.36690,-7.73834
80.25000,-13.37543,-7.74041
80.30000,-13.38357,-7.74389
80.35001,-13.39183,-7.74375
80.40000,-13.40010,-7.74405
80.45001,-13.40850,-7.74556
80.50001,-13.41663,-7.74617
80.55000,-13.42503,-7.74810
80.60001,-13.43343,-7.75061
80.65000,-13.44170,-7.75105
80.70001,-13.45010,-7.75186
80.75001,-13.45837,-7.75657
80.80000,-13.46677,-7.75548
80.85001,-13.47517,-7.76069
80.90000,-13.48343,-7.76254
80.95001,-13.49183,-7.76200
81.00001,-13.50037,-7.76619
81.05000,-13.50863,-7.76834
81.10001,-13.51677,-7.76724
81.15000,-13.52530,-7.76991
81.20001,-13.53357,-7.77086
81.25001,-13.54170,-7.77160
81.30000,-13.55010,-7.77000
81.35001,-13.55850,-7.77682
81.40000,-13.56663,-7.77449
81.45001,-13.57490,-7.77743
81.50001,-13.58357,-7.77853
81.55000,-13.59170,-7.78159
81.60001,-13.59997,-7.78188
81.65000,-13.60850,-7.78509
81.70001,-13.61690,-7.78665
81.75001,-13.62530,-7.78944
81.80000,-13.63370,-7.79104
81.85001,-13.64210,-7.79173
81.90000,-13.65037,-7.79552
81.95001,-13.65863,-7.79420
82.00001,-13.66677,-7.79796
82.05000,-13.67530,-7.79634
82.10001,-13.68357,-7.80370
82.15000,-13.69170,-7.80026
82.20001,-13.70023,-7.80492
82.25001,-13.70863,-7.80449
82.30000,-13.71677,-7.80808
82.35001,-13.72530,-7.80698
82.40000,-13.73383,-7.81417
82.45001,-13.74183,-7.81429
82.50001,-13.75023,-7.81465
82.55000,-13.75877,-7.81573
82.60001,-13.76690,-7.81880
82.65000,-13.77530,-7.81967
82.70001,-13.78370,-7.82120
82.75001,-13.79197,-7.82523
82.80000,-13.80023,-7.82449
82.85001,-13.80850,-7.82814
82.90000,-13.81677,-7.82710
82.95001,-13.82530,-7.83222
83.00001,-13.83357,-7.83263
83.05000,-13.84170,-7.83356
83.10001,-13.85023,-7.83602
83.15000,-13.85863,-7.83962
83.20001,-13.86677,-7.84282
83.25001,-13.87517,-7.84101
83.30000,-13.88370,-7.84781
83.35001,-13.89183,-7.84845
83.40000,-13.90010,-7.84965
83.45001,-13.90877,-7.85288
83.50001,-13.91690,-7.85607
83.55000,-13.92503,-7.85775
83.60001,-13.93357,-7.85972
83.65000,-13.94183,-7.86131
83.70001,-13.95010,-7.86463
83.75001,-13.95837,-7.86390
83.80000,-13.96677,-7.86851
83.85001,-13.97503,-7.86857
83.90000,-13.98330,-7.87246
83.95001,-13.99183,-7.87487
84.00001,-14.00023,-7.87862
84.05000,-14.00850,-7.88393
84.10001,-14.01677,-7.88581
84.15000,-14.02517,-7.88783
84.20001,-14.03357,-7.89370
84.25001,-14.04183,-7.89526
84.30000,-14.05010,-7.90027
84.35001,-14.05863,-7.90218
84.40000,-14.06690,-7.90904
84.45001,-14.07503,-7.90907
84.50001,-14.08343,-7.91555
84.55000,-14.09183,-7.91951
84.60001,-14.09983,-7.92527
84.65000,-14.10823,-7.92849
84.70001,-14.11690,-7.93679
84.75001,-14.12517,-7.94278
84.80000,-14.13343,-7.94860
84.85001,-14.14210,-7.95491
84.90000,-14.15037,-7.96346
84.95001,-14.15863,-7.96417
85.00001,-14.16703,-7.97552
85.05000,-14.17530,-7.97672
85.10001,-14.18370,-7.98688
85.15000,-14.19197,-7.98990
85.20001,-14.20010,-7.99802
85.25001,-14.20863,-8.00194
85.30000,-14.21690,-8.01007
85.35001,-14.22503,-8.01430
85.40000,-14.23356,-8.02069
85.45001,-14.24183,-8.02635
85.50001,-14.24997,-8.03373
85.55000,-14.25837,-8.03600
85.60001,-14.26690,-8.04671
85.65000,-14.27503,-8.05057
85.70001,-14.28343,-8.05872
85.75001,-14.29223,-8.06570
85.80000,-14.30037,-8.07447
85.85001,-14.30863,-8.07972
85.90000,-14.31703,-8.08643
85.95001,-14.32530,-8.09240
86.00001,-14.33356,-8.09860
86.05000,-14.34183,-8.10312
86.10001,-14.35023,-8.10987
86.15000,-14.35863,-8.11477
86.20001,-14.36690,-8.12200
86.25001,-14.37490,-8.12589
86.30000,-14.38343,-8.13061
86.35001,-14.39197,-8.13967
86.40000,-14.39996,-8.14496
86.45001,-14.40850,-8.14944
86.50001,-14.41703,-8.15666
86.55000,-14.42517,-8.16555
86.60001,-14.43343,-8.16604
86.65000,-14.44210,-8.17550
86.70001,-14.45023,-8.18264
86.75001,-14.45850,-8.18828
86.80000,-14.46690,-8.19124
86.85001,-14.47530,-8.20088
86.90000,-14.48330,-8.20345
86.95001,-14.49170,-8.20906
87.00001,-14.50010,-8.21458
87.05000,-14.50836,-8.22200
87.10001,-14.51663,-8.22617
87.15000,-14.52503,-8.23458
87.20001,-14.53356,-8.23999
87.25001,-14.54183,-8.24898
87.30000,-14.55010,-8.25490
87.35001,-14.55850,-8.26041
87.40000,-14.56690,-8.26725
87.45001,-14.57516,-8.27509
87.50001,-14.58343,-8.27919
87.55000,-14.59196,-8.28609
87.60001,-14.60023,-8.29400
87.65000,-14.60836,-8.29747
87.70001,-14.61690,-8.30342
87.75001,-14.62530,-8.31143
87.80000,-14.63330,-8.31626
87.85001,-14.64170,-8.32180
87.90000,-14.65023,-8.32988
87.95001,-14.65850,-8.33524
88.00001,-14.66663,-8.34109
88.05000,-14.67516,-8.34832
88.10001,-14.68356,-8.35462
88.15000,-14.69196,-8.36320
88.20001,-14.70023,-8.36991
88.25001,-14.70863,-8.37645
88.30000,-14.71703,-8.38354
88.35001,-14.72530,-8.39066
88.40000,-14.73343,-8.39470
88.45001,-14.74210,-8.40116
88.50001,-14.75023,-8.41026
88.55000,-14.75836,-8.41349
88.60001,-14.76690,-8.42046
88.65000,-14.77516,-8.42746
88.70001,-14.78330,-8.43361
88.75001,-14.79183,-8.43971
88.80000,-14.80050,-8.44973
88.85001,-14.80863,-8.45691
88.90000,-14.81690,-8.46188
88.95001,-14.82556,-8.46765
89.00001,-14.83370,-8.47597
89.05000,-14.84196,-8.47940
89.10001,-14.85036,-8.48607
89.15000,-14.85863,-8.49153
89.20001,-14.86690,-8.50007
89.25001,-14.87516,-8.50232
89.30000,-14.88343,-8.51144
89.35001,-14.89183,-8.51471
89.40000,-14.90010,-8.52537
89.45001,-14.90823,-8.52614
89.50001,-14.91676,-8.53382
89.55000,-14.92516,-8.54004
89.60001,-14.93330,-8.54977
89.65000,-14.94170,-8.55147
89.70001,-14.95036,-8.56394
89.75001,-14.95850,-8.57165
89.80000,-14.96690,-8.57844
89.85001,-14.97556,-8.58485
89.90000,-14.98370,-8.59670
89.95001,-14.99183,-8.59756
90.00001,-15.00023,-8.60819
90.05000,-15.00850,-8.61352
90.10001,-15.01663,-8.62195
90.15000,-15.02490,-8.62556
90.20001,-15.03343,-8.63683
90.25001,-15.04156,-8.63838
90.29201,-15.04863,-8.64859
