Time,Extension,Load
(sec),(mm),(N)
0.00000,0.63666,-0.04966
0.05000,0.63560,-0.04940
0.10000,0.63106,-0.05497
0.15000,0.62213,-0.06726
0.20000,0.61160,-0.08644
0.25000,0.60120,-0.10473
0.30000,0.59120,-0.11999
0.35000,0.58173,-0.13498
0.40000,0.57267,-0.14905
0.45000,0.56347,-0.16064
0.50000,0.55480,-0.17439
0.55000,0.54640,-0.18587
0.60000,0.53760,-0.19828
0.65000,0.52893,-0.21051
0.70000,0.52080,-0.22111
0.75000,0.51213,-0.23394
0.80000,0.50347,-0.24518
0.85000,0.49533,-0.25791
0.90000,0.48693,-0.26714
0.95000,0.47827,-0.28177
1.00000,0.47027,-0.29177
1.05000,0.46200,-0.30402
1.10000,0.45347,-0.31701
1.15000,0.44507,-0.32779
1.20000,0.43680,-0.34166
1.25000,0.42840,-0.35338
1.30000,0.42013,-0.36684
1.35000,0.41187,-0.37900
1.40000,0.40347,-0.39176
1.45000,0.39533,-0.40588
1.50000,0.38680,-0.41832
1.55000,0.37853,-0.43133
1.60000,0.37040,-0.44574
1.65000,0.36187,-0.45849
1.70000,0.35333,-0.47284
1.75000,0.34520,-0.48683
1.80000,0.33680,-0.49734
1.85000,0.32813,-0.51722
1.90000,0.32000,-0.52446
1.95000,0.31187,-0.54373
2.00000,0.30347,-0.55253
2.05000,0.29520,-0.57207
2.10000,0.28707,-0.58034
2.15000,0.27867,-0.59940
2.20000,0.27013,-0.61155
2.25000,0.26187,-0.62744
2.30000,0.25360,-0.63860
2.35000,0.24520,-0.65857
2.40000,0.23667,-0.66892
2.45000,0.22827,-0.68792
2.50000,0.22013,-0.69814
2.55000,0.21173,-0.71750
2.60000,0.20320,-0.72954
2.65000,0.19507,-0.74594
2.70000,0.18680,-0.75945
2.75000,0.17827,-0.77675
2.80000,0.17000,-0.79066
2.85000,0.16187,-0.80428
2.90000,0.15333,-0.82201
2.95000,0.14507,-0.83647
3.00000,0.13693,-0.85127
3.05000,0.12867,-0.86417
3.10000,0.12000,-0.88793
3.15000,0.11173,-0.89180
3.20000,0.10347,-0.91805
3.25000,0.09480,-0.92738
3.30000,0.08667,-0.94554
3.35000,0.07840,-0.95940
3.40000,0.07000,-0.97747
3.45000,0.06160,-0.99024
3.50000,0.05333,-1.00807
3.55000,0.04493,-1.02237
3.60000,0.03680,-1.03801
3.65000,0.02827,-1.05545
3.70000,0.02000,-1.06639
3.75000,0.01187,-1.09043
3.80000,0.00333,-1.09461
3.85000,-0.00493,-1.12110
3.90000,-0.01307,-1.12807
3.95000,-0.02160,-1.15107
4.00000,-0.03013,-1.15918
4.05000,-0.03813,-1.18405
4.10000,-0.04653,-1.19039
4.15000,-0.05520,-1.21471
4.20000,-0.06333,-1.22217
4.25000,-0.07160,-1.24567
4.30000,-0.08013,-1.25347
4.35000,-0.08840,-1.27728
4.40000,-0.09653,-1.28277
4.45000,-0.10493,-1.31084
4.50000,-0.11320,-1.31278
4.55000,-0.12160,-1.33903
4.60000,-0.12987,-1.34866
4.65000,-0.13800,-1.36708
4.70000,-0.14653,-1.37765
4.75000,-0.15493,-1.39670
4.80000,-0.16307,-1.40288
4.85000,-0.17160,-1.41694
4.90000,-0.18013,-1.42585
4.95000,-0.18813,-1.44549
5.00000,-0.19653,-1.45039
5.05000,-0.20507,-1.45608
5.10000,-0.21320,-1.46370
5.15000,-0.22147,-1.47046
5.20000,-0.22987,-1.47749
5.25000,-0.23827,-1.48394
5.30000,-0.24640,-1.49801
5.35000,-0.25480,-1.51373
5.40000,-0.26307,-1.52777
5.45000,-0.27133,-1.54286
5.50000,-0.27973,-1.56217
5.55000,-0.28813,-1.57695
5.60000,-0.29653,-1.59759
5.65000,-0.30493,-1.60864
5.70000,-0.31307,-1.63118
5.75000,-0.32160,-1.64096
5.80000,-0.33000,-1.66302
5.85000,-0.33827,-1.67434
5.90000,-0.34653,-1.69340
5.95000,-0.35507,-1.70758
6.00000,-0.36320,-1.72154
6.05000,-0.37133,-1.73935
6.10000,-0.37987,-1.75407
6.15000,-0.38827,-1.76922
6.20000,-0.39640,-1.78473
6.25000,-0.40467,-1.80000
6.30000,-0.41333,-1.81563
6.35000,-0.42147,-1.83192
6.40000,-0.42987,-1.84405
6.45000,-0.43840,-1.86306
6.50000,-0.44667,-1.87575
6.55000,-0.45493,-1.89182
6.60000,-0.46333,-1.90527
6.65000,-0.47173,-1.91816
6.70000,-0.48000,-1.93402
6.75000,-0.48840,-1.95044
6.80000,-0.49653,-1.95641
6.85000,-0.50507,-1.97573
6.90000,-0.51333,-1.99094
6.95000,-0.52147,-2.00315
7.00000,-0.53000,-2.01886
7.05000,-0.53827,-2.01791
7.10000,-0.54640,-1.99048
7.15000,-0.55493,-2.00744
7.20000,-0.56333,-2.03242
7.25000,-0.57147,-2.04565
7.30000,-0.57987,-2.06636
7.35000,-0.58853,-2.08395
7.40000,-0.59667,-2.09886
7.45000,-0.60493,-2.11042
7.50000,-0.61347,-2.12841
7.55000,-0.62160,-2.13010
7.60000,-0.62987,-2.14428
7.65000,-0.63813,-2.14709
7.70000,-0.64640,-2.16126
7.75000,-0.65480,-2.15577
7.80000,-0.66320,-2.18067
7.85000,-0.67133,-2.19105
7.90000,-0.68000,-2.20486
7.95000,-0.68827,-2.20787
8.00000,-0.69640,-2.22925
8.05000,-0.70480,-2.23698
8.10000,-0.71333,-2.25348
8.15000,-0.72146,-2.26162
8.20000,-0.72986,-2.28497
8.25000,-0.73853,-2.29659
8.30000,-0.74653,-2.31532
8.35000,-0.75480,-2.32314
8.40000,-0.76320,-2.34300
8.45000,-0.77160,-2.35307
8.50000,-0.77973,-2.36683
8.55000,-0.78813,-2.37842
8.60000,-0.79653,-2.39057
8.65000,-0.80466,-2.40346
8.70000,-0.81293,-2.42271
8.75000,-0.82146,-2.43542
8.80000,-0.83000,-2.45272
8.85000,-0.83840,-2.46449
8.90000,-0.84653,-2.48354
8.95000,-0.85493,-2.49346
9.00000,-0.86333,-2.50888
9.05000,-0.87160,-2.52295
9.10000,-0.87973,-2.53482
9.15000,-0.88840,-2.54875
9.20000,-0.89666,-2.56356
9.25000,-0.90480,-2.57953
9.30000,-0.91333,-2.58949
9.35000,-0.92160,-2.61106
9.40000,-0.92960,-2.62014
9.45000,-0.93800,-2.63585
9.50000,-0.94653,-2.65135
9.55000,-0.95480,-2.66699
9.60000,-0.96320,-2.67794
9.65000,-0.97173,-2.70010
9.70000,-0.98000,-2.70849
9.75000,-0.98840,-2.72750
9.80000,-0.99680,-2.73909
9.85000,-1.00506,-2.75698
9.90000,-1.01333,-2.76707
9.95000,-1.02160,-2.78446
10.00000,-1.02973,-2.79677
10.05000,-1.03813,-2.81141
10.10000,-1.04640,-2.82465
10.15000,-1.05466,-2.83814
10.20000,-1.06333,-2.85277
10.25000,-1.07173,-2.86900
10.30000,-1.07973,-2.88174
10.35000,-1.08826,-2.88914
10.40000,-1.09680,-2.91497
10.45000,-1.10493,-2.91739
10.50000,-1.11320,-2.94043
10.55000,-1.12186,-2.94300
10.60000,-1.13000,-2.96763
10.65000,-1.13826,-2.97331
10.70000,-1.14666,-2.99232
10.75000,-1.15506,-3.00177
10.80000,-1.16320,-3.01854
10.85000,-1.17160,-3.02778
10.90000,-1.17986,-3.04760
10.95000,-1.18826,-3.05241
11.00000,-1.19666,-3.07646
11.05000,-1.20466,-3.07806
11.10000,-1.21333,-3.10255
11.15000,-1.22160,-3.10458
11.20000,-1.22973,-3.12870
11.25000,-1.23826,-3.13209
11.30000,-1.24680,-3.15512
11.35000,-1.25493,-3.15891
11.40000,-1.26333,-3.17941
11.45000,-1.27186,-3.18542
11.50000,-1.27986,-3.20625
11.55000,-1.28813,-3.20931
11.60000,-1.29653,-3.22916
11.65000,-1.30493,-3.23577
11.70000,-1.31306,-3.25219
11.75000,-1.32133,-3.26114
11.80000,-1.32973,-3.27745
11.85000,-1.33800,-3.28794
11.90000,-1.34640,-3.29950
11.95000,-1.35480,-3.31422
12.00000,-1.36320,-3.32642
12.05000,-1.37160,-3.33994
12.10000,-1.37986,-3.35243
12.15000,-1.38826,-3.36245
12.20000,-1.39666,-3.37938
12.25000,-1.40493,-3.38896
12.30000,-1.41320,-3.40219
12.35000,-1.42173,-3.41195
12.40000,-1.42986,-3.42568
12.45000,-1.43800,-3.43847
12.50000,-1.44653,-3.44830
12.55000,-1.45506,-3.46172
12.60000,-1.46306,-3.47389
12.65000,-1.47133,-3.48302
12.70000,-1.48000,-3.49984
12.75000,-1.48826,-3.50530
12.80000,-1.49653,-3.52371
12.85000,-1.50520,-3.53229
12.90000,-1.51346,-3.54609
12.95000,-1.52173,-3.55714
13.00000,-1.53000,-3.56890
13.05000,-1.53840,-3.57960
13.10000,-1.54666,-3.59222
13.15000,-1.55493,-3.60446
13.20000,-1.56320,-3.61301
13.25000,-1.57173,-3.62871
13.30000,-1.58000,-3.63833
13.35000,-1.58800,-3.65056
13.40000,-1.59666,-3.66136
13.45000,-1.60493,-3.67387
13.50000,-1.61293,-3.68396
13.55000,-1.62146,-3.69583
13.60000,-1.63013,-3.70612
13.65000,-1.63826,-3.72075
13.70000,-1.64653,-3.72888
13.75000,-1.65533,-3.74286
13.80000,-1.66333,-3.75108
13.85000,-1.67160,-3.76607
13.90000,-1.68000,-3.77291
13.95000,-1.68826,-3.78767
14.00000,-1.69640,-3.79461
14.05000,-1.70480,-3.80925
14.10000,-1.71306,-3.81588
14.15000,-1.72160,-3.83123
14.20000,-1.72986,-3.83863
14.25000,-1.73800,-3.85344
14.30000,-1.74666,-3.85958
14.35000,-1.75506,-3.87443
14.40000,-1.76306,-3.88153
14.45000,-1.77160,-3.89511
14.50000,-1.78013,-3.90251
14.55000,-1.78813,-3.91932
14.60000,-1.79653,-3.91928
14.65000,-1.80520,-3.94078
14.70000,-1.81333,-3.94221
14.75000,-1.82146,-3.96113
14.80000,-1.83000,-3.96077
14.85000,-1.83813,-3.98228
14.90000,-1.84640,-3.97962
14.95000,-1.85480,-4.00161
15.00000,-1.86306,-4.00059
15.05000,-1.87146,-4.02254
15.10000,-1.87973,-4.02141
15.15000,-1.88813,-4.04274
15.20000,-1.89653,-4.04119
15.25000,-1.90493,-4.06305
15.30000,-1.91320,-4.06384
15.35000,-1.92160,-4.08097
15.40000,-1.93013,-4.08350
15.45000,-1.93826,-4.10181
15.50000,-1.94653,-4.10340
15.55000,-1.95506,-4.11995
15.60000,-1.96320,-4.12504
15.65000,-1.97133,-4.13786
15.70000,-1.97986,-4.14168
15.75000,-1.98826,-4.16067
15.80000,-1.99640,-4.16031
15.85000,-2.00466,-4.17862
15.90000,-2.01333,-4.17925
15.95000,-2.02146,-4.19827
16.00000,-2.02986,-4.19968
16.05000,-2.03840,-4.21655
16.10000,-2.04666,-4.22009
16.15000,-2.05493,-4.23342
16.20000,-2.06333,-4.24079
16.25000,-2.07173,-4.25038
16.30000,-2.08013,-4.26001
16.35000,-2.08839,-4.27074
16.40000,-2.09653,-4.27570
16.45000,-2.10493,-4.28933
16.50000,-2.11319,-4.29317
16.55000,-2.12133,-4.30811
16.60000,-2.12999,-4.30965
16.65000,-2.13826,-4.32580
16.70000,-2.14626,-4.32845
16.75000,-2.15493,-4.34195
16.80000,-2.16359,-4.34781
16.85000,-2.17159,-4.35944
16.90000,-2.17999,-4.36491
16.95000,-2.18853,-4.37694
17.00000,-2.19666,-4.38135
17.05000,-2.20493,-4.39284
17.10000,-2.21346,-4.39897
17.15000,-2.22173,-4.40813
17.20000,-2.22999,-4.41538
17.25000,-2.23826,-4.42400
17.30000,-2.24653,-4.43284
17.35000,-2.25506,-4.43895
17.40000,-2.26333,-4.45143
17.45000,-2.27133,-4.45436
17.50000,-2.27999,-4.46594
17.55000,-2.28826,-4.47228
17.60000,-2.29639,-4.48213
17.65000,-2.30493,-4.48737
17.70000,-2.31346,-4.49665
17.75000,-2.32159,-4.50532
17.80000,-2.32986,-4.51162
17.85000,-2.33839,-4.51919
17.90000,-2.34653,-4.52693
17.95000,-2.35466,-4.53520
18.00000,-2.36306,-4.54086
18.05000,-2.37133,-4.55100
18.10000,-2.37959,-4.55380
18.15000,-2.38799,-4.56647
18.20000,-2.39639,-4.56996
18.25000,-2.40479,-4.58027
18.30000,-2.41319,-4.58323
18.35000,-2.42146,-4.59606
18.40000,-2.42986,-4.59737
18.45000,-2.43826,-4.61069
18.50000,-2.44653,-4.61171
18.55000,-2.45493,-4.62554
18.60000,-2.46333,-4.62624
18.65000,-2.47159,-4.63966
18.70000,-2.47986,-4.64146
18.75000,-2.48839,-4.65061
18.80000,-2.49653,-4.65709
18.85000,-2.50466,-4.66258
18.90000,-2.51319,-4.66756
18.95000,-2.52159,-4.67770
19.00000,-2.52959,-4.68168
19.05000,-2.53799,-4.68789
19.10000,-2.54666,-4.69576
19.15000,-2.55493,-4.70187
19.20000,-2.56319,-4.70890
19.25000,-2.57173,-4.71443
19.30000,-2.57999,-4.72255
19.35000,-2.58826,-4.72645
19.40000,-2.59653,-4.73478
19.45000,-2.60493,-4.73906
19.50000,-2.61346,-4.74730
19.55000,-2.62173,-4.75249
19.60000,-2.62986,-4.75836
19.65000,-2.63839,-4.76403
19.70000,-2.64666,-4.77101
19.75000,-2.65479,-4.77492
19.80000,-2.66333,-4.78145
19.85000,-2.67159,-4.78750
19.90000,-2.67973,-4.79216
19.95000,-2.68826,-4.79822
20.00000,-2.69693,-4.80548
20.05000,-2.70493,-4.81116
20.10000,-2.71319,-4.81463
20.15000,-2.72186,-4.82210
20.20000,-2.72999,-4.82573
20.25000,-2.73826,-4.83247
20.30000,-2.74666,-4.83580
20.35000,-2.75493,-4.84238
20.40000,-2.76319,-4.84644
20.45000,-2.77159,-4.85141
20.50000,-2.77986,-4.85666
20.55000,-2.78826,-4.86089
20.60000,-2.79653,-4.86609
20.65000,-2.80453,-4.87067
20.70000,-2.81319,-4.87393
20.75000,-2.82159,-4.88108
20.80000,-2.82973,-4.88351
20.85000,-2.83826,-4.88945
20.90000,-2.84679,-4.89163
20.95000,-2.85479,-4.89839
21.00000,-2.86306,-4.90026
21.05000,-2.87173,-4.90492
21.10000,-2.87986,-4.91067
21.15000,-2.88813,-4.91381
21.20000,-2.89653,-4.91695
21.25000,-2.90479,-4.92233
21.30000,-2.91306,-4.92581
21.35000,-2.92133,-4.93033
21.40000,-2.92973,-4.93361
21.45000,-2.93799,-4.93774
21.50000,-2.94639,-4.94231
21.55000,-2.95479,-4.94674
21.60000,-2.96333,-4.95023
21.65000,-2.97173,-4.95510
21.70000,-2.97986,-4.95944
21.75000,-2.98826,-4.96115
21.80000,-2.99679,-4.96674
21.85000,-3.00479,-4.96946
21.90000,-3.01306,-4.97179
21.95000,-3.02159,-4.97570
22.00000,-3.02986,-4.98113
22.05000,-3.03799,-4.98236
22.10000,-3.04666,-4.98647
22.15000,-3.05506,-4.99112
22.20000,-3.06306,-4.99337
22.25000,-3.07146,-4.99558
22.30000,-3.08013,-5.00087
22.35000,-3.08826,-5.00393
22.40000,-3.09653,-5.00663
22.45000,-3.10506,-5.01032
22.50000,-3.11333,-5.01380
22.55000,-3.12173,-5.01738
22.60000,-3.12999,-5.02054
22.65000,-3.13839,-5.02379
22.70000,-3.14679,-5.02784
22.75000,-3.15506,-5.03045
22.80000,-3.16319,-5.03212
22.85000,-3.17173,-5.03682
22.90000,-3.17986,-5.03956
22.95000,-3.18799,-5.04177
23.00000,-3.19666,-5.04464
23.05000,-3.20493,-5.04981
23.10000,-3.21293,-5.05072
23.15000,-3.22146,-5.05451
23.20000,-3.23013,-5.05739
23.25000,-3.23826,-5.06180
23.30000,-3.24653,-5.06338
23.35000,-3.25519,-5.06714
23.40000,-3.26333,-5.07046
23.45000,-3.27159,-5.07234
23.50000,-3.27999,-5.07545
23.55000,-3.28839,-5.07865
23.60000,-3.29653,-5.08090
23.65000,-3.30493,-5.08365
23.70000,-3.31319,-5.08567
23.75000,-3.32159,-5.08953
23.80000,-3.32986,-5.09148
23.85000,-3.33786,-5.09488
23.90000,-3.34653,-5.09622
23.95000,-3.35493,-5.10158
24.00000,-3.36306,-5.10381
24.05000,-3.37146,-5.10706
24.10000,-3.38013,-5.10723
24.15000,-3.38812,-5.11634
24.20000,-3.39639,-5.11098
24.25000,-3.40506,-5.12128
24.30000,-3.41319,-5.11899
24.35000,-3.42146,-5.12646
24.40000,-3.42986,-5.12341
24.45000,-3.43812,-5.13180
24.50000,-3.44639,-5.12985
24.55000,-3.45479,-5.13640
24.60000,-3.46306,-5.13505
24.65000,-3.47132,-5.14315
24.70000,-3.47972,-5.14043
24.75000,-3.48812,-5.15025
24.80000,-3.49652,-5.14615
24.85000,-3.50492,-5.15540
24.90000,-3.51319,-5.15367
24.95000,-3.52159,-5.15993
25.00000,-3.52999,-5.15923
25.05000,-3.53826,-5.16543
25.10000,-3.54652,-5.16433
25.15000,-3.55506,-5.17025
25.20000,-3.56319,-5.17079
25.25000,-3.57132,-5.17393
25.30000,-3.57986,-5.17521
25.35000,-3.58826,-5.18056
25.40000,-3.59626,-5.17922
25.45000,-3.60466,-5.18448
25.50000,-3.61332,-5.18614
25.55000,-3.62146,-5.19095
25.60000,-3.62986,-5.19067
25.65000,-3.63839,-5.19725
25.70000,-3.64666,-5.19758
25.75000,-3.65492,-5.20112
25.80000,-3.66332,-5.20365
25.85000,-3.67172,-5.20541
25.90000,-3.67999,-5.20939
25.95000,-3.68839,-5.21128
26.00000,-3.69652,-5.21322
26.05000,-3.70519,-5.21723
26.10000,-3.71346,-5.21880
26.15000,-3.72146,-5.22223
26.20000,-3.72999,-5.22344
26.25000,-3.73839,-5.22719
26.30000,-3.74639,-5.22890
26.35000,-3.75492,-5.23018
26.40000,-3.76346,-5.23412
26.45000,-3.77159,-5.23585
26.50000,-3.77986,-5.23728
26.55000,-3.78852,-5.24043
26.60000,-3.79666,-5.24251
26.65000,-3.80506,-5.24504
26.70000,-3.81346,-5.24662
26.75000,-3.82172,-5.24943
26.80000,-3.82986,-5.25015
26.85000,-3.83812,-5.25324
26.90000,-3.84652,-5.25394
26.95000,-3.85479,-5.25729
27.00000,-3.86306,-5.25893
27.05000,-3.87119,-5.26177
27.10000,-3.87986,-5.26183
27.15000,-3.88826,-5.26598
27.20000,-3.89639,-5.26703
27.25000,-3.90492,-5.26879
27.30000,-3.91346,-5.26987
27.35000,-3.92146,-5.27252
27.40000,-3.92972,-5.27097
27.45000,-3.93839,-5.27392
27.50000,-3.94652,-5.27348
27.55000,-3.95466,-5.27641
27.60000,-3.96319,-5.27537
27.65000,-3.97159,-5.27863
27.70000,-3.97972,-5.27883
27.75000,-3.98812,-5.27953
27.80000,-3.99652,-5.28210
27.85000,-4.00466,-5.28230
27.90000,-4.01306,-5.28271
27.95000,-4.02146,-5.28702
28.00000,-4.02999,-5.28463
28.05000,-4.03839,-5.29030
28.10000,-4.04666,-5.28963
28.15000,-4.05506,-5.29107
28.20000,-4.06346,-5.29188
28.25000,-4.07159,-5.29309
28.30000,-4.07986,-5.29380
28.35000,-4.08839,-5.29468
28.40000,-4.09652,-5.29636
28.45000,-4.10466,-5.29597
28.50000,-4.11319,-5.29727
28.55000,-4.12146,-5.30070
28.60000,-4.12959,-5.29863
28.65000,-4.13799,-5.30191
28.70000,-4.14666,-5.30379
28.75000,-4.15479,-5.30376
28.80000,-4.16306,-5.30619
28.85000,-4.17172,-5.30664
28.90000,-4.18012,-5.31042
28.95000,-4.18839,-5.30780
29.00000,-4.19679,-5.31363
29.05000,-4.20506,-5.31056
29.10000,-4.21332,-5.31389
29.15000,-4.22172,-5.31269
29.20000,-4.22986,-5.31533
29.25000,-4.23826,-5.31505
29.30000,-4.24652,-5.31680
29.35000,-4.25466,-5.31580
29.40000,-4.26332,-5.31790
29.45000,-4.27159,-5.31896
29.50000,-4.27959,-5.32040
29.55000,-4.28812,-5.31962
29.60000,-4.29666,-5.32323
29.65000,-4.30492,-5.32310
29.70000,-4.31332,-5.32546
29.75000,-4.32199,-5.32523
29.80000,-4.32999,-5.32890
29.85000,-4.33812,-5.32693
29.90000,-4.34652,-5.32935
29.95000,-4.35492,-5.32886
30.00000,-4.36306,-5.33317
30.05000,-4.37146,-5.33160
30.10000,-4.37986,-5.33491
30.15000,-4.38839,-5.33436
30.20000,-4.39652,-5.33737
30.25000,-4.40466,-5.33547
30.30000,-4.41332,-5.33846
30.35000,-4.42159,-5.33777
30.40000,-4.42972,-5.34042
30.45000,-4.43826,-5.33832
30.50000,-4.44679,-5.34258
30.55000,-4.45492,-5.34094
30.60000,-4.46319,-5.34315
30.65000,-4.47186,-5.34155
30.70000,-4.47986,-5.34514
30.75000,-4.48812,-5.34261
30.80000,-4.49652,-5.34446
30.85000,-4.50479,-5.34347
30.90000,-4.51292,-5.34469
30.95000,-4.52132,-5.34224
31.00000,-4.52972,-5.34590
31.05000,-4.53799,-5.34421
31.10000,-4.54639,-5.34626
31.15000,-4.55479,-5.34496
31.20000,-4.56332,-5.34762
31.25000,-4.57159,-5.34532
31.30000,-4.57986,-5.34788
31.35000,-4.58826,-5.34463
31.40000,-4.59666,-5.34807
31.45000,-4.60479,-5.34439
31.50000,-4.61306,-5.34642
31.55000,-4.62172,-5.34446
31.60000,-4.62986,-5.34825
31.65000,-4.63799,-5.34271
31.70000,-4.64652,-5.34540
31.75000,-4.65492,-5.34367
31.80000,-4.66306,-5.34375
31.85000,-4.67132,-5.34234
31.90000,-4.67999,-5.34496
31.95000,-4.68826,-5.34346
32.00000,-4.69652,-5.34505
32.05000,-4.70506,-5.34384
32.10000,-4.71332,-5.34697
32.15000,-4.72159,-5.34570
32.20000,-4.72999,-5.34830
32.25000,-4.73826,-5.34675
32.30000,-4.74666,-5.34862
32.35000,-4.75506,-5.34973
32.40000,-4.76319,-5.35026
32.45000,-4.77172,-5.35091
32.50000,-4.77986,-5.35297
32.55000,-4.78812,-5.35202
32.60000,-4.79665,-5.35442
32.65000,-4.80492,-5.35607
32.70000,-4.81306,-5.35557
32.75000,-4.82159,-5.35765
32.80000,-4.83012,-5.35885
32.85000,-4.83812,-5.35996
32.90000,-4.84652,-5.36014
32.95000,-4.85519,-5.36278
33.00000,-4.86332,-5.36323
33.05000,-4.87159,-5.36385
33.10000,-4.88012,-5.36580
33.15000,-4.88839,-5.36590
33.20000,-4.89665,-5.36656
33.25000,-4.90492,-5.36719
33.30000,-4.91319,-5.36873
33.35000,-4.92145,-5.36741
33.40000,-4.92972,-5.37059
33.45000,-4.93785,-5.37035
33.50000,-4.94652,-5.37282
33.55000,-4.95492,-5.37428
33.60000,-4.96305,-5.37547
33.65000,-4.97159,-5.37574
33.70000,-4.98012,-5.37717
33.75000,-4.98825,-5.37937
33.80000,-4.99652,-5.38064
33.85000,-5.00519,-5.37898
33.90000,-5.01319,-5.38665
33.95000,-5.02145,-5.38118
34.00000,-5.02985,-5.38744
34.05000,-5.03825,-5.38677
34.10000,-5.04652,-5.38940
34.15000,-5.05479,-5.38983
34.20000,-5.06319,-5.39127
34.25000,-5.07132,-5.39112
34.30000,-5.07972,-5.39457
34.35000,-5.08812,-5.39546
34.40000,-5.09652,-5.39620
34.45000,-5.10479,-5.40077
34.50000,-5.11305,-5.40052
34.55000,-5.12159,-5.40325
34.60000,-5.12999,-5.40474
34.65000,-5.13825,-5.40889
34.70000,-5.14639,-5.40672
34.75000,-5.15505,-5.41128
34.80000,-5.16319,-5.41058
34.85000,-5.17132,-5.41525
34.90000,-5.17985,-5.41187
34.95000,-5.18825,-5.42075
35.00000,-5.19639,-5.41399
35.05000,-5.20465,-5.42554
35.10000,-5.21319,-5.41677
35.15000,-5.22145,-5.42881
35.20000,-5.22972,-5.42203
35.25000,-5.23825,-5.43130
35.30000,-5.24652,-5.42644
35.35000,-5.25492,-5.43395
35.40000,-5.26332,-5.42964
35.45000,-5.27159,-5.43766
35.50000,-5.27999,-5.43112
35.55000,-5.28825,-5.44162
35.60000,-5.29652,-5.43292
35.65000,-5.30505,-5.44581
35.70000,-5.31332,-5.43728
35.75000,-5.32145,-5.44733
35.80000,-5.32999,-5.44098
35.85000,-5.33825,-5.44866
35.90000,-5.34639,-5.44397
35.95000,-5.35492,-5.45023
36.00000,-5.36345,-5.44926
36.05000,-5.37159,-5.45252
36.10000,-5.37985,-5.45017
36.15000,-5.38852,-5.45673
36.20000,-5.39665,-5.45236
36.25000,-5.40492,-5.45592
36.30000,-5.41345,-5.45699
36.35000,-5.42172,-5.45720
36.40000,-5.42999,-5.45881
36.45000,-5.43825,-5.46023
36.50000,-5.44652,-5.45937
36.55000,-5.45492,-5.46252
36.60000,-5.46319,-5.46248
36.65000,-5.47132,-5.46407
36.70000,-5.47999,-5.46439
36.75000,-5.48825,-5.46771
36.80000,-5.49652,-5.46720
36.85000,-5.50492,-5.46883
36.90000,-5.51345,-5.47069
36.95000,-5.52159,-5.47155
37.00000,-5.52985,-5.47302
37.05000,-5.53839,-5.47352
37.10000,-5.54652,-5.47521
37.15000,-5.55479,-5.47659
37.20000,-5.56319,-5.47661
37.25000,-5.57159,-5.47985
37.30000,-5.57972,-5.47909
37.35000,-5.58799,-5.48186
37.40000,-5.59639,-5.48186
37.45000,-5.60452,-5.48449
37.50000,-5.61292,-5.48404
37.55000,-5.62145,-5.48994
37.60000,-5.62985,-5.48836
37.65000,-5.63825,-5.49287
37.70000,-5.64652,-5.49479
37.75000,-5.65505,-5.49557
37.80000,-5.66345,-5.49923
37.85000,-5.67159,-5.49991
37.90000,-5.67972,-5.50074
37.95000,-5.68839,-5.50238
38.00000,-5.69652,-5.50445
38.05000,-5.70479,-5.50653
38.10000,-5.71332,-5.50810
38.15000,-5.72159,-5.51235
38.20000,-5.72972,-5.50622
38.25000,-5.73799,-5.51977
38.30000,-5.74665,-5.51135
38.35000,-5.75492,-5.52172
38.40000,-5.76319,-5.51593
38.45000,-5.77172,-5.52517
38.50000,-5.77999,-5.52114
38.55000,-5.78825,-5.52667
38.60000,-5.79665,-5.52504
38.65000,-5.80505,-5.53236
38.70000,-5.81332,-5.52708
38.75000,-5.82172,-5.53591
38.80000,-5.82985,-5.53122
38.85000,-5.83839,-5.53904
38.90000,-5.84665,-5.53482
38.95000,-5.85465,-5.54153
39.00000,-5.86332,-5.53721
39.05000,-5.87159,-5.54675
39.10000,-5.87972,-5.54034
39.15000,-5.88825,-5.54976
39.20000,-5.89679,-5.54475
39.25000,-5.90479,-5.55496
39.30000,-5.91319,-5.54555
39.35000,-5.92185,-5.55937
39.40000,-5.92999,-5.55012
39.45000,-5.93825,-5.56032
39.50000,-5.94679,-5.55275
39.55000,-5.95505,-5.56388
39.60000,-5.96332,-5.55580
39.65000,-5.97159,-5.56509
39.70000,-5.97999,-5.55858
39.75000,-5.98825,-5.56695
39.80000,-5.99652,-5.56238
39.85000,-6.00465,-5.56937
39.90000,-6.01332,-5.56248
39.95000,-6.02172,-5.57344
40.00000,-6.02985,-5.56737
40.05000,-6.03825,-5.57438
40.10000,-6.04679,-5.57226
40.15000,-6.05492,-5.57799
40.20000,-6.06319,-5.57460
40.25000,-6.07185,-5.57640
40.30000,-6.07999,-5.57883
40.35000,-6.08825,-5.57886
40.40000,-6.09665,-5.57782
40.45000,-6.10479,-5.58124
40.50000,-6.11305,-5.57931
40.55000,-6.12132,-5.58241
40.60000,-6.12972,-5.58217
40.65000,-6.13799,-5.58327
40.70000,-6.14638,-5.58586
40.75000,-6.15478,-5.58585
40.80000,-6.16332,-5.58829
40.85000,-6.17159,-5.58843
40.90000,-6.17985,-5.59199
40.95000,-6.18838,-5.59145
41.00000,-6.19678,-5.59241
41.05000,-6.20492,-5.59728
41.10000,-6.21318,-5.59469
41.15000,-6.22172,-5.59464
41.20000,-6.22985,-5.60257
41.25000,-6.23798,-5.59488
41.30000,-6.24652,-5.60307
41.35000,-6.25478,-5.59709
41.40000,-6.26292,-5.60387
41.45000,-6.27132,-5.60001
41.50000,-6.27998,-5.60673
41.55000,-6.28825,-5.59995
41.60000,-6.29652,-5.61058
41.65000,-6.30505,-5.60281
41.70000,-6.31345,-5.61119
41.75000,-6.32158,-5.60564
41.80000,-6.32998,-5.61099
41.85000,-6.33825,-5.60767
41.90000,-6.34665,-5.61425
41.95000,-6.35505,-5.60928
42.00000,-6.36318,-5.61584
42.05000,-6.37172,-5.61309
42.10000,-6.37998,-5.61931
42.15000,-6.38798,-5.61417
42.20000,-6.39665,-5.62135
42.25000,-6.40478,-5.61778
42.30000,-6.41292,-5.62408
42.35000,-6.42158,-5.62055
42.40000,-6.43012,-5.62681
42.45000,-6.43825,-5.62580
42.50000,-6.44652,-5.62696
42.55000,-6.45518,-5.62772
42.60000,-6.46332,-5.63153
42.65000,-6.47158,-5.62982
42.70000,-6.48012,-5.63283
42.75000,-6.48838,-5.63368
42.80000,-6.49652,-5.63603
42.85000,-6.50492,-5.63580
42.90000,-6.51318,-5.63770
42.95000,-6.52158,-5.63988
43.00000,-6.52985,-5.64011
43.05000,-6.53798,-5.64167
43.10000,-6.54665,-5.64256
43.15000,-6.55492,-5.64685
43.20000,-6.56305,-5.64638
43.25000,-6.57158,-5.64875
43.30000,-6.57998,-5.64693
43.35000,-6.58812,-5.65460
43.40000,-6.59638,-5.64935
43.45000,-6.60505,-5.65365
43.50000,-6.61318,-5.65427
43.55000,-6.62145,-5.65707
43.60000,-6.62985,-5.65568
43.65000,-6.63812,-5.65875
43.70000,-6.64625,-5.66106
43.75000,-6.65465,-5.65945
43.80000,-6.66305,-5.66490
43.85000,-6.67132,-5.66162
43.90000,-6.67972,-5.66848
43.95000,-6.68812,-5.66554
44.00000,-6.69665,-5.67143
44.05000,-6.70492,-5.67086
44.10000,-6.71318,-5.67517
44.15000,-6.72158,-5.67440
44.20000,-6.72998,-5.67850
44.25000,-6.73812,-5.67647
44.30000,-6.74638,-5.68340
44.35000,-6.75505,-5.67882
44.40000,-6.76332,-5.68620
44.45000,-6.77132,-5.68396
44.50000,-6.77985,-5.68819
44.55000,-6.78825,-5.68836
44.60000,-6.79625,-5.69423
44.65000,-6.80465,-5.68928
44.70000,-6.81332,-5.70001
44.75000,-6.82158,-5.69672
44.80000,-6.82985,-5.70274
44.85000,-6.83838,-5.70127
44.90000,-6.84678,-5.70606
44.95000,-6.85492,-5.70658
45.00000,-6.86332,-5.71045
45.05000,-6.87172,-5.71092
45.10000,-6.88012,-5.71531
45.15000,-6.88838,-5.71603
45.20000,-6.89652,-5.71662
45.25000,-6.90492,-5.72244
45.30000,-6.91318,-5.71945
45.35000,-6.92132,-5.72640
45.40000,-6.92985,-5.72207
45.45000,-6.93825,-5.73242
45.50000,-6.94625,-5.72562
45.55000,-6.95478,-5.73672
45.60000,-6.96345,-5.73407
45.65000,-6.97145,-5.73843
45.70000,-6.97985,-5.73876
45.75000,-6.98852,-5.74306
45.80000,-6.99652,-5.74571
45.85000,-7.00478,-5.74645
45.90000,-7.01332,-5.74729
45.95000,-7.02172,-5.75387
46.00000,-7.02998,-5.75304
46.05000,-7.03825,-5.75719
46.10000,-7.04665,-5.75787
46.15000,-7.05492,-5.76061
46.20000,-7.06318,-5.76159
46.25000,-7.07132,-5.76412
46.30000,-7.07998,-5.76588
46.35000,-7.08838,-5.76911
46.40000,-7.09638,-5.77244
46.45000,-7.10492,-5.77307
46.50000,-7.11345,-5.77558
46.55000,-7.12145,-5.77884
46.60000,-7.12985,-5.77901
46.65000,-7.13838,-5.78154
46.70000,-7.14652,-5.78452
46.75000,-7.15492,-5.78475
46.80000,-7.16332,-5.78824
46.85000,-7.17158,-5.78771
46.90000,-7.17972,-5.79132
46.95000,-7.18812,-5.79076
47.00000,-7.19638,-5.79428
47.05000,-7.20465,-5.79522
47.10000,-7.21305,-5.79693
47.15000,-7.22145,-5.79972
47.20000,-7.22985,-5.80088
47.25000,-7.23825,-5.80278
47.30000,-7.24652,-5.80566
47.35000,-7.25492,-5.80644
47.40000,-7.26332,-5.80793
47.45000,-7.27145,-5.80912
47.50000,-7.27972,-5.80946
47.55000,-7.28838,-5.81036
47.60000,-7.29652,-5.81351
47.65000,-7.30465,-5.81383
47.70000,-7.31318,-5.81487
47.75000,-7.32172,-5.81871
47.80000,-7.32972,-5.81746
47.85000,-7.33812,-5.82055
47.90000,-7.34665,-5.82376
47.95000,-7.35492,-5.82570
48.00000,-7.36318,-5.82687
48.05000,-7.37158,-5.82839
48.10000,-7.37985,-5.83132
48.15000,-7.38825,-5.82909
48.20000,-7.39665,-5.83700
48.25000,-7.40492,-5.83288
48.30000,-7.41332,-5.83900
48.35000,-7.42158,-5.83514
48.40000,-7.42972,-5.84404
48.45000,-7.43838,-5.83503
48.50000,-7.44651,-5.85161
48.55000,-7.45465,-5.83560
48.60000,-7.46332,-5.85368
48.65000,-7.47158,-5.84118
48.70000,-7.47972,-5.85245
48.75000,-7.48825,-5.84562
48.80000,-7.49678,-5.85706
48.85000,-7.50491,-5.84892
48.90000,-7.51331,-5.85686
48.95000,-7.52198,-5.85152
49.00000,-7.52998,-5.85869
49.05000,-7.53825,-5.85785
49.10000,-7.54678,-5.85640
49.15000,-7.55505,-5.86224
49.20000,-7.56318,-5.85914
49.25000,-7.57158,-5.86244
49.30000,-7.57985,-5.86288
49.35000,-7.58825,-5.86429
49.40000,-7.59651,-5.86204
49.45000,-7.60465,-5.87113
49.50000,-7.61331,-5.86174
49.55000,-7.62158,-5.87323
49.60000,-7.62971,-5.86749
49.65000,-7.63825,-5.87132
49.70000,-7.64665,-5.87130
49.75000,-7.65478,-5.87536
49.80000,-7.66305,-5.87426
49.85000,-7.67158,-5.87406
49.90000,-7.67985,-5.87974
49.95000,-7.68825,-5.87771
50.00000,-7.69665,-5.87846
50.05000,-7.70505,-5.88518
50.10000,-7.71318,-5.87661
50.15000,-7.72145,-5.88832
50.20000,-7.72985,-5.87725
50.25000,-7.73798,-5.88944
50.30000,-7.74638,-5.88146
50.35000,-7.75465,-5.89097
50.40000,-7.76331,-5.88637
50.45000,-7.77171,-5.89415
50.50000,-7.77985,-5.89185
50.55000,-7.78825,-5.89336
50.60000,-7.79665,-5.89365
50.65000,-7.80491,-5.90311
50.70000,-7.81318,-5.88981
50.75000,-7.82171,-5.90537
50.80000,-7.82998,-5.89510
50.85000,-7.83811,-5.90674
50.90000,-7.84651,-5.89654
50.95000,-7.85491,-5.90947
51.00000,-7.86305,-5.89825
51.05000,-7.87145,-5.91127
51.10000,-7.87998,-5.90067
51.15000,-7.88811,-5.91245
51.20000,-7.89651,-5.90447
51.25000,-7.90505,-5.91246
51.30000,-7.91331,-5.91006
51.35000,-7.92158,-5.91729
51.40000,-7.92998,-5.91166
51.45000,-7.93838,-5.91803
51.50000,-7.94678,-5.91570
51.55000,-7.95505,-5.92002
51.60000,-7.96318,-5.91589
51.65000,-7.97171,-5.92452
51.70000,-7.97998,-5.91743
51.75000,-7.98811,-5.92781
51.80000,-7.99651,-5.91630
51.85000,-8.00491,-5.92998
51.90000,-8.01305,-5.92062
51.95000,-8.02158,-5.92992
52.00000,-8.03025,-5.92603
52.05000,-8.03825,-5.93339
52.10000,-8.04651,-5.92693
52.15000,-8.05505,-5.93511
52.20000,-8.06331,-5.92878
52.25000,-8.07158,-5.93823
52.30000,-8.07998,-5.93044
52.35000,-8.08838,-5.93928
52.40000,-8.09665,-5.93292
52.45000,-8.10491,-5.93894
52.50000,-8.11318,-5.93703
52.55000,-8.12158,-5.93803
52.60000,-8.12985,-5.94095
52.65000,-8.13798,-5.93789
52.70000,-8.14651,-5.94346
52.75000,-8.15491,-5.94025
52.80000,-8.16305,-5.94775
52.85000,-8.17158,-5.94111
52.90000,-8.18011,-5.95204
52.95000,-8.18825,-5.94249
53.00000,-8.19651,-5.95388
53.05000,-8.20518,-5.94323
53.10000,-8.21331,-5.95700
53.15000,-8.22145,-5.94557
53.20000,-8.22985,-5.95787
53.25000,-8.23811,-5.94633
53.30000,-8.24625,-5.96136
53.35000,-8.25465,-5.94671
53.40000,-8.26305,-5.96361
53.45000,-8.27131,-5.94996
53.50000,-8.27971,-5.96508
53.55000,-8.28798,-5.95496
53.60000,-8.29651,-5.96680
53.65000,-8.30491,-5.95777
53.70000,-8.31305,-5.96908
53.75000,-8.32145,-5.96091
53.80000,-8.32985,-5.97055
53.85000,-8.33811,-5.96622
53.90000,-8.34651,-5.97181
53.95000,-8.35518,-5.96846
54.00000,-8.36331,-5.97923
54.05000,-8.37145,-5.96631
54.10000,-8.37998,-5.98361
54.15000,-8.38838,-5.97021
54.20000,-8.39638,-5.98547
54.25000,-8.40465,-5.97367
54.30000,-8.41331,-5.98639
54.35000,-8.42145,-5.98115
54.40000,-8.42985,-5.98909
54.45000,-8.43825,-5.98453
54.50000,-8.44665,-5.99354
54.55000,-8.45505,-5.98840
54.60000,-8.46331,-5.99722
54.65000,-8.47171,-5.99181
54.70000,-8.48011,-5.99911
54.75000,-8.48838,-5.99724
54.80000,-8.49651,-6.00008
54.85000,-8.50505,-6.00168
54.90000,-8.51331,-6.00271
54.95000,-8.52131,-6.00388
55.00000,-8.52985,-6.00204
55.05000,-8.53825,-6.00807
55.10000,-8.54625,-6.00621
55.15000,-8.55478,-6.00864
55.20000,-8.56345,-6.00883
55.25000,-8.57158,-6.01723
55.30000,-8.57985,-6.00728
55.35000,-8.58851,-6.02252
55.40000,-8.59665,-6.01344
55.45000,-8.60491,-6.02290
55.50000,-8.61331,-6.01611
55.55000,-8.62171,-6.02608
55.60000,-8.62998,-6.01955
55.65000,-8.63825,-6.02669
55.70000,-8.64638,-6.02139
55.75000,-8.65491,-6.02853
55.80000,-8.66318,-6.02758
55.85000,-8.67131,-6.02649
55.90000,-8.67985,-6.03092
55.95000,-8.68838,-6.03211
56.00000,-8.69651,-6.03207
56.05000,-8.70491,-6.03292
56.10000,-8.71345,-6.03519
56.15000,-8.72145,-6.03745
56.20000,-8.72985,-6.03649
56.25000,-8.73825,-6.03893
56.30000,-8.74651,-6.03776
56.35000,-8.75465,-6.04358
56.40000,-8.76318,-6.03962
56.45000,-8.77145,-6.04413
56.50000,-8.77971,-6.04597
56.55000,-8.78811,-6.04701
56.60000,-8.79651,-6.04718
56.65000,-8.80465,-6.05157
56.70000,-8.81304,-6.04892
56.75000,-8.82145,-6.05599
56.80000,-8.82985,-6.05371
56.85000,-8.83825,-6.05660
56.90000,-8.84651,-6.06178
56.95000,-8.85491,-6.05740
57.00000,-8.86345,-6.06342
57.05000,-8.87158,-6.06465
57.10000,-8.87985,-6.06684
57.15000,-8.88851,-6.06503
57.20000,-8.89651,-6.07211
57.25000,-8.90465,-6.06661
57.30000,-8.91304,-6.07197
57.35000,-8.92145,-6.07099
57.40000,-8.92958,-6.07334
57.45000,-8.93798,-6.07257
57.50000,-8.94651,-6.07699
57.55000,-8.95478,-6.07743
57.60000,-8.96318,-6.08005
57.65000,-8.97171,-6.08237
57.70000,-8.97998,-6.08284
57.75000,-8.98824,-6.08351
57.80000,-8.99664,-6.08516
57.85000,-9.00491,-6.08700
57.90000,-9.01345,-6.08618
57.95000,-9.02171,-6.09071
58.00000,-9.02971,-6.08800
58.05000,-9.03838,-6.09083
58.10000,-9.04651,-6.08985
58.15000,-9.05451,-6.09215
58.20000,-9.06318,-6.08906
58.25000,-9.07145,-6.09488
58.30000,-9.07971,-6.09133
58.35000,-9.08824,-6.09466
58.40000,-9.09691,-6.09408
58.45000,-9.10491,-6.09737
58.50000,-9.11318,-6.09190
58.55000,-9.12184,-6.09829
58.60000,-9.13011,-6.09453
58.65000,-9.13824,-6.09646
58.70000,-9.14664,-6.09415
58.75000,-9.15504,-6.09773
58.80000,-9.16331,-6.09463
58.85000,-9.17158,-6.09606
58.90000,-9.17984,-6.09423
58.95000,-9.18824,-6.09781
59.00000,-9.19651,-6.09309
59.05000,-9.20464,-6.09405
59.10000,-9.21318,-6.08984
59.15000,-9.22158,-6.09399
59.20000,-9.22971,-6.09016
59.25000,-9.23811,-6.09178
59.30000,-9.24664,-6.09024
59.35000,-9.25478,-6.09234
59.40000,-9.26304,-6.08926
59.45000,-9.27171,-6.08999
59.50000,-9.27984,-6.09095
59.55000,-9.28811,-6.09032
59.60000,-9.29651,-6.08745
59.65000,-9.30478,-6.08917
59.70000,-9.31291,-6.08709
59.75000,-9.32144,-6.08837
59.80000,-9.32971,-6.08938
59.85000,-9.33811,-6.08955
59.90000,-9.34651,-6.09111
59.95000,-9.35478,-6.09215
60.00000,-9.36331,-6.09187
60.05000,-9.37171,-6.09364
60.10000,-9.37984,-6.09664
60.15000,-9.38838,-6.09529
60.20000,-9.39678,-6.09720
60.25000,-9.40491,-6.09892
60.30000,-9.41318,-6.09782
60.35000,-9.42171,-6.09904
60.40000,-9.42998,-6.10228
60.45000,-9.43811,-6.10041
60.50000,-9.44651,-6.10391
60.55000,-9.45491,-6.10357
60.60000,-9.46304,-6.10552
60.65000,-9.47144,-6.10609
60.70000,-9.47998,-6.11010
60.75000,-9.48824,-6.10984
60.80000,-9.49651,-6.11280
60.85000,-9.50504,-6.11308
60.90000,-9.51331,-6.11505
60.95000,-9.52171,-6.11460
61.00000,-9.53011,-6.11802
61.05000,-9.53838,-6.11697
61.10000,-9.54664,-6.12028
61.15000,-9.55491,-6.11999
61.20000,-9.56304,-6.12192
61.25000,-9.57158,-6.12519
61.30000,-9.57984,-6.12442
61.35000,-9.58798,-6.12573
61.40000,-9.59651,-6.12714
61.45000,-9.60491,-6.13033
61.50000,-9.61304,-6.13045
61.55000,-9.62158,-6.13125
61.60000,-9.63024,-6.13536
61.65000,-9.63811,-6.13417
61.70000,-9.64638,-6.13481
61.75000,-9.65491,-6.13627
61.80000,-9.66318,-6.13719
61.85000,-9.67158,-6.13787
61.90000,-9.68011,-6.14096
61.95000,-9.68838,-6.14226
62.00000,-9.69664,-6.14209
62.05000,-9.70491,-6.14510
62.10000,-9.71331,-6.14498
62.15000,-9.72171,-6.14790
62.20000,-9.72998,-6.15043
62.25000,-9.73798,-6.14965
62.30000,-9.74664,-6.15255
62.35000,-9.75504,-6.15484
62.40000,-9.76304,-6.15778
62.45000,-9.77158,-6.15822
62.50000,-9.78011,-6.16048
62.55000,-9.78811,-6.16344
62.60000,-9.79638,-6.16300
62.65000,-9.80504,-6.16428
62.70000,-9.81318,-6.16732
62.75000,-9.82131,-6.16767
62.80000,-9.82971,-6.16863
62.85000,-9.83811,-6.16977
62.90000,-9.84624,-6.17177
62.95000,-9.85464,-6.17628
63.00000,-9.86318,-6.17696
63.05000,-9.87144,-6.17947
63.10000,-9.87971,-6.17953
63.15000,-9.88811,-6.18348
63.20000,-9.89651,-6.18379
63.25000,-9.90491,-6.18706
63.30000,-9.91318,-6.18892
63.35000,-9.92158,-6.19250
63.40000,-9.92998,-6.19195
63.45000,-9.93824,-6.19974
63.50000,-9.94651,-6.19538
63.55000,-9.95504,-6.20228
63.60000,-9.96331,-6.20080
63.65000,-9.97144,-6.20597
63.70000,-9.97984,-6.20053
63.75000,-9.98824,-6.21297
63.80000,-9.99638,-6.20214
63.85000,-10.00478,-6.21325
63.90000,-10.01344,-6.20743
63.95000,-10.02158,-6.21886
64.00000,-10.02998,-6.21307
64.05000,-10.03838,-6.22265
64.10001,-10.04664,-6.21846
64.15000,-10.05491,-6.22618
64.20000,-10.06344,-6.22391
64.25000,-10.07171,-6.23138
64.30000,-10.08011,-6.22915
64.35001,-10.08838,-6.23774
64.40000,-10.09651,-6.23147
64.45000,-10.10491,-6.23994
64.50000,-10.11331,-6.23851
64.55000,-10.12144,-6.24345
64.60001,-10.12998,-6.24592
64.65000,-10.13824,-6.24916
64.70000,-10.14638,-6.25133
64.75000,-10.15478,-6.25338
64.80000,-10.16344,-6.26022
64.85001,-10.17158,-6.26230
64.90000,-10.17984,-6.26428
64.95000,-10.18851,-6.26849
65.00000,-10.19664,-6.27321
65.05000,-10.20491,-6.27343
65.10001,-10.21344,-6.27881
65.15000,-10.22171,-6.28044
65.20000,-10.22997,-6.28441
65.25000,-10.23824,-6.28554
65.30000,-10.24637,-6.29121
65.35001,-10.25478,-6.28937
65.40000,-10.26317,-6.29767
65.45000,-10.27131,-6.29622
65.50000,-10.27984,-6.30170
65.55000,-10.28838,-6.30287
65.60001,-10.29637,-6.30804
65.65000,-10.30478,-6.30550
65.70001,-10.31331,-6.31248
65.75000,-10.32131,-6.31263
65.80000,-10.32971,-6.31762
65.85001,-10.33837,-6.31776
65.90000,-10.34664,-6.32607
65.95001,-10.35478,-6.32579
66.00000,-10.36331,-6.32874
66.05000,-10.37158,-6.33016
66.10001,-10.37971,-6.33561
66.15000,-10.38811,-6.33528
66.20001,-10.39651,-6.34051
66.25000,-10.40464,-6.33865
66.30000,-10.41291,-6.34534
66.35001,-10.42131,-6.34677
66.40000,-10.42984,-6.35144
66.45001,-10.43824,-6.35256
66.50000,-10.44651,-6.36094
66.55000,-10.45491,-6.35707
66.60001,-10.46331,-6.36577
66.65000,-10.47157,-6.36578
66.70001,-10.47984,-6.37002
66.75000,-10.48851,-6.37108
66.80000,-10.49664,-6.37724
66.85001,-10.50477,-6.37712
66.90000,-10.51317,-6.37983
66.95001,-10.52157,-6.38380
67.00000,-10.52957,-6.38562
67.05000,-10.53797,-6.38691
67.10001,-10.54651,-6.39284
67.15000,-10.55477,-6.39377
67.20001,-10.56304,-6.39927
67.25000,-10.57157,-6.40112
67.30000,-10.57984,-6.40417
67.35001,-10.58824,-6.40936
67.40000,-10.59664,-6.41365
67.45001,-10.60504,-6.41321
67.50000,-10.61344,-6.41998
67.55000,-10.62171,-6.42161
67.60001,-10.62984,-6.42446
67.65000,-10.63837,-6.42649
67.70001,-10.64664,-6.43248
67.75000,-10.65477,-6.43246
67.80000,-10.66331,-6.43689
67.85001,-10.67157,-6.43815
67.90000,-10.67971,-6.44237
67.95001,-10.68824,-6.44370
68.00000,-10.69691,-6.44929
68.05000,-10.70491,-6.45011
68.10001,-10.71331,-6.45433
68.15000,-10.72184,-6.45502
68.20001,-10.72997,-6.46098
68.25000,-10.73824,-6.45933
68.30000,-10.74677,-6.46673
68.35001,-10.75504,-6.46524
68.40000,-10.76317,-6.47122
68.45001,-10.77157,-6.46840
68.50000,-10.77984,-6.47730
68.55000,-10.78824,-6.47468
68.60001,-10.79651,-6.48432
68.65000,-10.80464,-6.47919
68.70001,-10.81317,-6.48677
68.75000,-10.82157,-6.48776
68.80000,-10.82971,-6.49415
68.85001,-10.83811,-6.49122
68.90000,-10.84677,-6.50312
68.95001,-10.85491,-6.49880
69.00000,-10.86317,-6.50807
69.05000,-10.87184,-6.50192
69.10001,-10.87997,-6.51390
69.15000,-10.88811,-6.50744
69.20001,-10.89651,-6.51664
69.25000,-10.90477,-6.51391
69.30000,-10.91291,-6.51979
69.35001,-10.92117,-6.51825
69.40000,-10.92971,-6.52666
69.45001,-10.93797,-6.52242
69.50000,-10.94637,-6.53477
69.55000,-10.95464,-6.52857
69.60001,-10.96317,-6.54245
69.65000,-10.97144,-6.53618
69.70001,-10.97957,-6.54707
69.75000,-10.98811,-6.54519
69.80000,-10.99664,-6.55122
69.85001,-11.00491,-6.55604
69.90000,-11.01317,-6.55724
69.95001,-11.02171,-6.56392
70.00000,-11.02997,-6.56134
70.05000,-11.03811,-6.57088
70.10001,-11.04664,-6.56609
70.15000,-11.05491,-6.57763
70.20001,-11.06291,-6.57292
70.25000,-11.07131,-6.58221
70.30000,-11.07997,-6.57900
70.35001,-11.08811,-6.59386
70.40000,-11.09651,-6.58223
70.45001,-11.10504,-6.60412
70.50000,-11.11331,-6.58868
70.55000,-11.12157,-6.61009
70.60001,-11.12997,-6.59713
70.65000,-11.13837,-6.61391
70.70001,-11.14677,-6.60703
70.75000,-11.15504,-6.62236
70.80000,-11.16317,-6.61353
70.85001,-11.17171,-6.62784
70.90000,-11.17997,-6.62159
70.95001,-11.18797,-6.63499
71.00000,-11.19664,-6.62579
71.05000,-11.20491,-6.64438
71.10001,-11.21304,-6.63506
71.15000,-11.22144,-6.64787
71.20001,-11.23011,-6.64687
71.25000,-11.23824,-6.65670
71.30000,-11.24651,-6.65454
71.35001,-11.25504,-6.66368
71.40000,-11.26331,-6.66375
71.45001,-11.27157,-6.66994
71.50000,-11.28011,-6.67292
71.55000,-11.28837,-6.67866
71.60001,-11.29651,-6.68034
71.65000,-11.30491,-6.68414
71.70001,-11.31317,-6.68896
71.75000,-11.32157,-6.69175
71.80000,-11.32984,-6.69756
71.85001,-11.33797,-6.69994
71.90000,-11.34651,-6.70404
71.95001,-11.35491,-6.70887
72.00000,-11.36304,-6.71153
72.05000,-11.37157,-6.71339
72.10001,-11.38011,-6.72031
72.15000,-11.38811,-6.72164
72.20001,-11.39637,-6.72612
72.25000,-11.40504,-6.72589
72.30000,-11.41317,-6.73567
72.35001,-11.42144,-6.73276
72.40000,-11.42984,-6.74022
72.45001,-11.43811,-6.74253
72.50000,-11.44637,-6.74606
72.55000,-11.45477,-6.74806
72.60001,-11.46304,-6.75335
72.65000,-11.47131,-6.75469
72.70001,-11.47971,-6.76065
72.75000,-11.48811,-6.76390
72.80000,-11.49651,-6.76958
72.85001,-11.50491,-6.77221
72.90000,-11.51317,-6.77730
72.95001,-11.52157,-6.77832
73.00000,-11.53011,-6.78532
73.05000,-11.53824,-6.78963
73.10001,-11.54651,-6.79185
73.15000,-11.55504,-6.79655
73.20001,-11.56317,-6.80190
73.25000,-11.57130,-6.80269
73.30000,-11.57984,-6.80675
73.35001,-11.58824,-6.81434
73.40000,-11.59637,-6.81557
73.45001,-11.60464,-6.81937
73.50000,-11.61330,-6.82453
73.55000,-11.62157,-6.83074
73.60001,-11.62984,-6.83347
73.65000,-11.63824,-6.83698
73.70001,-11.64650,-6.84223
73.75000,-11.65477,-6.84555
73.80000,-11.66330,-6.85167
73.85001,-11.67171,-6.85377
73.90000,-11.68010,-6.86124
73.95001,-11.68837,-6.86556
74.00000,-11.69664,-6.86634
74.05000,-11.70504,-6.87185
74.10001,-11.71330,-6.87820
74.15000,-11.72144,-6.87863
74.20001,-11.72997,-6.88396
74.25000,-11.73824,-6.88973
74.30000,-11.74637,-6.89342
74.35001,-11.75490,-6.89651
74.40000,-11.76344,-6.90472
74.45001,-11.77157,-6.90748
74.50000,-11.77997,-6.91288
74.55000,-11.78850,-6.91571
74.60001,-11.79664,-6.92109
74.65000,-11.80490,-6.92311
74.70001,-11.81344,-6.92966
74.75000,-11.82170,-6.93173
74.80000,-11.82997,-6.93675
74.85001,-11.83824,-6.94014
74.90000,-11.84650,-6.94439
74.95001,-11.85490,-6.94686
75.00000,-11.86317,-6.95349
75.05000,-11.87130,-6.95355
75.10001,-11.87984,-6.95912
75.15000,-11.88824,-6.96237
75.20001,-11.89637,-6.97036
75.25000,-11.90490,-6.96887
75.30000,-11.91330,-6.97771
75.35001,-11.92144,-6.98043
75.40000,-11.92970,-6.98357
75.45001,-11.93837,-6.98774
75.50000,-11.94650,-6.99449
75.55000,-11.95477,-6.99525
75.60001,-11.96317,-6.99994
75.65000,-11.97144,-7.00470
75.70001,-11.97970,-7.00912
75.75000,-11.98810,-7.01263
75.80000,-11.99650,-7.01935
75.85001,-12.00477,-7.02209
75.90000,-12.01304,-7.02812
75.95001,-12.02144,-7.03166
76.00000,-12.02984,-7.03778
76.05000,-12.03824,-7.04212
76.10001,-12.04637,-7.04843
76.15000,-12.05490,-7.05197
76.20001,-12.06330,-7.05928
76.25000,-12.07157,-7.06437
76.30000,-12.07984,-7.06663
76.35001,-12.08837,-7.07215
76.40000,-12.09650,-7.07679
76.45001,-12.10464,-7.07819
76.50000,-12.11317,-7.08346
76.55000,-12.12157,-7.09044
76.60001,-12.12970,-7.09187
76.65000,-12.13797,-7.09611
76.70001,-12.14664,-7.10078
76.75000,-12.15490,-7.10777
76.80000,-12.16317,-7.10976
76.85001,-12.17170,-7.11544
76.90000,-12.17997,-7.11932
76.95001,-12.18837,-7.12599
77.00000,-12.19677,-7.13002
77.05000,-12.20517,-7.13518
77.10001,-12.21344,-7.13997
77.15000,-12.22170,-7.14550
77.20001,-12.22984,-7.14603
77.25000,-12.23837,-7.15433
77.30000,-12.24664,-7.15778
77.35001,-12.25464,-7.16091
77.40000,-12.26330,-7.16379
77.45001,-12.27157,-7.17180
77.50000,-12.27970,-7.17205
77.55000,-12.28824,-7.17841
77.60001,-12.29664,-7.18357
77.65000,-12.30477,-7.18900
77.70001,-12.31304,-7.19028
77.75000,-12.32170,-7.19853
77.80000,-12.32997,-7.20330
77.85001,-12.33837,-7.20784
77.90000,-12.34677,-7.21350
77.95001,-12.35517,-7.21717
78.00000,-12.36330,-7.22015
78.05000,-12.37157,-7.22540
78.10001,-12.37984,-7.22914
78.15000,-12.38837,-7.23413
78.20001,-12.39650,-7.23910
78.25000,-12.40464,-7.24163
78.30000,-12.41317,-7.24577
78.35001,-12.42144,-7.24988
78.40000,-12.42970,-7.25601
78.45001,-12.43824,-7.25893
78.50000,-12.44677,-7.26627
78.55000,-12.45477,-7.27086
78.60001,-12.46304,-7.27427
78.65000,-12.47170,-7.27821
78.70001,-12.47984,-7.28697
78.75000,-12.48810,-7.28725
78.80000,-12.49650,-7.29456
78.85001,-12.50477,-7.29715
78.90000,-12.51304,-7.30385
78.95001,-12.52144,-7.30528
79.00000,-12.52970,-7.31299
79.05000,-12.53810,-7.31553
79.10001,-12.54637,-7.32187
79.15000,-12.55464,-7.32560
79.20001,-12.56317,-7.32997
79.25000,-12.57157,-7.33621
79.30000,-12.57970,-7.34258
79.35001,-12.58810,-7.34369
79.40000,-12.59664,-7.35163
79.45001,-12.60490,-7.35669
79.50000,-12.61317,-7.35849
79.55000,-12.62170,-7.36408
79.60001,-12.62997,-7.36982
79.65000,-12.63797,-7.37180
79.70001,-12.64650,-7.37512
79.75000,-12.65490,-7.38311
79.80000,-12.66304,-7.38348
79.85001,-12.67144,-7.38936
79.90000,-12.67997,-7.39495
79.95001,-12.68824,-7.40106
80.00000,-12.69650,-7.40350
80.05000,-12.70504,-7.41006
80.10001,-12.71330,-7.41267
80.15000,-12.72170,-7.41826
80.20001,-12.72997,-7.42050
80.25000,-12.73837,-7.42540
80.30000,-12.74677,-7.42730
80.35001,-12.75504,-7.43343
80.40000,-12.76317,-7.43099
80.45001,-12.77170,-7.43665
80.50001,-12.77997,-7.43820
80.55000,-12.78797,-7.44132
80.60001,-12.79664,-7.44143
80.65000,-12.80490,-7.44835
80.70001,-12.81290,-7.44677
80.75001,-12.82157,-7.45339
80.80000,-12.83010,-7.45782
80.85001,-12.83810,-7.46251
80.90000,-12.84650,-7.46298
80.95001,-12.85517,-7.46989
81.00001,-12.86330,-7.47316
81.05000,-12.87170,-7.47634
81.10001,-12.88010,-7.48199
81.15000,-12.88837,-7.48397
81.20001,-12.89664,-7.48971
81.25001,-12.90490,-7.49070
81.30000,-12.91330,-7.49907
81.35001,-12.92157,-7.49944
81.40000,-12.92984,-7.50946
81.45001,-12.93797,-7.50863
81.50001,-12.94650,-7.51743
81.55000,-12.95490,-7.52225
81.60001,-12.96290,-7.52917
81.65000,-12.97130,-7.52996
81.70001,-12.97997,-7.54019
81.75001,-12.98810,-7.54483
81.80000,-12.99650,-7.55067
81.85001,-13.00517,-7.55526
81.90000,-13.01343,-7.56616
81.95001,-13.02157,-7.56821
82.00001,-13.02997,-7.57409
82.05000,-13.03823,-7.57850
82.10001,-13.04637,-7.58474
82.15000,-13.05477,-7.58709
82.20001,-13.06303,-7.59460
82.25001,-13.07130,-7.59745
82.30000,-13.07970,-7.60581
82.35001,-13.08797,-7.60897
82.40000,-13.09650,-7.61533
82.45001,-13.10490,-7.62203
82.50001,-13.11317,-7.62774
82.55000,-13.12157,-7.63061
82.60001,-13.13010,-7.63832
82.65000,-13.13823,-7.64304
82.70001,-13.14650,-7.64652
82.75001,-13.15503,-7.65047
82.80000,-13.16330,-7.65835
82.85001,-13.17130,-7.65890
82.90000,-13.17983,-7.66200
82.95001,-13.18823,-7.67066
83.00001,-13.19637,-7.67388
83.05000,-13.20463,-7.67616
83.10001,-13.21330,-7.68180
83.15000,-13.22143,-7.68813
83.20001,-13.22970,-7.68973
83.25001,-13.23837,-7.69634
83.30000,-13.24663,-7.69984
83.35001,-13.25490,-7.70487
83.40000,-13.26330,-7.71066
83.45001,-13.27170,-7.71239
83.50001,-13.27997,-7.71646
83.55000,-13.28837,-7.72101
83.60001,-13.29650,-7.72254
83.65000,-13.30517,-7.72794
83.70001,-13.31330,-7.73098
83.75001,-13.32143,-7.73374
83.80000,-13.32997,-7.73441
83.85001,-13.33837,-7.74106
83.90000,-13.34637,-7.74146
83.95001,-13.35490,-7.74461
84.00001,-13.36343,-7.75040
84.05000,-13.37143,-7.75238
84.10001,-13.37983,-7.75353
84.15000,-13.38837,-7.75978
84.20001,-13.39663,-7.76222
84.25001,-13.40490,-7.76540
84.30000,-13.41330,-7.77059
84.35001,-13.42170,-7.77476
84.40000,-13.42983,-7.77669
84.45001,-13.43823,-7.77975
84.50001,-13.44650,-7.78349
84.55000,-13.45490,-7.78555
84.60001,-13.46317,-7.79072
84.65000,-13.47130,-7.79122
84.70001,-13.47983,-7.79489
84.75001,-13.48823,-7.80037
84.80000,-13.49637,-7.80299
84.85001,-13.50490,-7.80460
84.90000,-13.51343,-7.80970
84.95001,-13.52157,-7.81307
85.00001,-13.52983,-7.81291
85.05000,-13.53850,-7.81736
85.10001,-13.54663,-7.82067
85.15000,-13.55490,-7.82170
85.20001,-13.56317,-7.82148
85.25001,-13.57143,-7.82501
85.30000,-13.57970,-7.82575
85.35001,-13.58810,-7.82853
85.40000,-13.59637,-7.83111
85.45001,-13.60463,-7.83449
85.50001,-13.61290,-7.83767
85.55000,-13.62130,-7.84163
85.60001,-13.62983,-7.84177
85.65000,-13.63823,-7.84814
85.70001,-13.64650,-7.85056
85.75001,-13.65490,-7.85115
85.80000,-13.66343,-7.85450
85.85001,-13.67157,-7.85970
85.90000,-13.67983,-7.85712
85.95001,-13.68837,-7.85950
86.00001,-13.69663,-7.86487
86.05000,-13.70477,-7.86526
86.10001,-13.71317,-7.86957
86.15000,-13.72157,-7.87125
86.20001,-13.72970,-7.87288
86.25001,-13.73797,-7.87950
86.30000,-13.74663,-7.87766
86.35001,-13.75490,-7.88724
86.40000,-13.76317,-7.88371
86.45001,-13.77170,-7.89112
86.50001,-13.78010,-7.89143
86.55000,-13.78837,-7.89561
86.60001,-13.79663,-7.89732
86.65000,-13.80503,-7.89806
86.70001,-13.81343,-7.90000
86.75001,-13.82170,-7.90770
86.80000,-13.82983,-7.89867
86.85001,-13.83837,-7.91308
86.90000,-13.84663,-7.90687
86.95001,-13.85463,-7.91774
87.00001,-13.86317,-7.91082
87.05000,-13.87157,-7.92349
87.10001,-13.87957,-7.91915
87.15000,-13.88810,-7.92876
87.20001,-13.89677,-7.92716
87.25001,-13.90477,-7.93941
87.30000,-13.91317,-7.93221
87.35001,-13.92183,-7.94662
87.40000,-13.93010,-7.93992
87.45001,-13.93823,-7.95340
87.50001,-13.94663,-7.94671
87.55000,-13.95503,-7.95857
87.60001,-13.96317,-7.95184
87.65000,-13.97143,-7.96448
87.70001,-13.97983,-7.95917
87.75001,-13.98837,-7.97267
87.80000,-13.99650,-7.97053
87.85001,-14.00450,-7.98004
87.90000,-14.01317,-7.97437
87.95001,-14.02157,-7.99263
88.00001,-14.02970,-7.98853
88.05000,-14.03823,-8.00088
88.10001,-14.04677,-8.00077
88.15000,-14.05490,-8.01325
88.20001,-14.06330,-8.01049
88.25001,-14.07183,-8.02195
88.30000,-14.07997,-8.02477
88.35001,-14.08823,-8.03080
88.40000,-14.09663,-8.03007
88.45001,-14.10490,-8.04192
88.50001,-14.11317,-8.03987
88.55000,-14.12143,-8.04939
88.60001,-14.12970,-8.05013
88.65000,-14.13797,-8.05975
88.70001,-14.14637,-8.06213
88.75001,-14.15463,-8.07079
88.80000,-14.16317,-8.07368
88.85001,-14.17156,-8.08454
88.90000,-14.17983,-8.08819
88.95001,-14.18823,-8.09422
89.00001,-14.19677,-8.10028
89.05000,-14.20490,-8.11026
89.10001,-14.21317,-8.11147
89.15000,-14.22170,-8.11941
89.20001,-14.22997,-8.12682
89.25001,-14.23797,-8.13139
89.30000,-14.24650,-8.13533
89.35001,-14.25503,-8.14501
89.40000,-14.26303,-8.14917
89.45001,-14.27130,-8.15567
89.50001,-14.27997,-8.16322
89.55000,-14.28810,-8.17010
89.60001,-14.29636,-8.17631
89.65000,-14.30490,-8.18382
89.70001,-14.31330,-8.19143
89.75001,-14.32170,-8.19808
89.80000,-14.33010,-8.20699
89.85001,-14.33836,-8.21061
89.90000,-14.34677,-8.21779
89.95001,-14.35503,-8.22589
90.00001,-14.36317,-8.22937
90.05000,-14.37170,-8.23574
90.05801,-14.37303,-8.23683
