Time,Extension,Load
(sec),(mm),(N)
0.00000,0.00000,-0.00209
0.05000,-0.00093,0.00178
0.10000,-0.00480,-0.00413
0.15000,-0.01360,-0.00742
0.20000,-0.02467,-0.01797
0.25000,-0.03507,-0.02799
0.30000,-0.04507,-0.03584
0.35000,-0.05467,-0.04522
0.40000,-0.06387,-0.05121
0.45000,-0.07293,-0.05956
0.50000,-0.08173,-0.06558
0.55000,-0.09067,-0.07264
0.60000,-0.09920,-0.08096
0.65000,-0.10760,-0.08740
0.70000,-0.11627,-0.09533
0.75000,-0.12467,-0.10319
0.80000,-0.13280,-0.10891
0.85000,-0.14120,-0.11900
0.90000,-0.14987,-0.12402
0.95000,-0.15800,-0.13420
1.00000,-0.16627,-0.13947
1.05000,-0.17480,-0.14906
1.10000,-0.18320,-0.15548
1.15000,-0.19147,-0.16384
1.20000,-0.20000,-0.17113
1.25000,-0.20840,-0.18063
1.30000,-0.21680,-0.18708
1.35000,-0.22520,-0.19651
1.40000,-0.23347,-0.20240
1.45000,-0.24173,-0.21374
1.50000,-0.25013,-0.21993
1.55000,-0.25827,-0.23037
1.60000,-0.26680,-0.23743
1.65000,-0.27493,-0.24863
1.70000,-0.28307,-0.25680
1.75000,-0.29147,-0.26658
1.80000,-0.29987,-0.27779
1.85000,-0.30813,-0.28770
1.90000,-0.31653,-0.29993
1.95000,-0.32520,-0.31093
2.00000,-0.33333,-0.32362
2.05000,-0.34160,-0.33491
2.10000,-0.35013,-0.34825
2.15000,-0.35827,-0.35992
2.20000,-0.36640,-0.37325
2.25000,-0.37493,-0.38481
2.30000,-0.38333,-0.39894
2.35000,-0.39147,-0.41206
2.40000,-0.39987,-0.42629
2.45000,-0.40813,-0.43899
2.50000,-0.41640,-0.45184
2.55000,-0.42467,-0.46392
2.60000,-0.43293,-0.48071
2.65000,-0.44147,-0.49408
2.70000,-0.44987,-0.50827
2.75000,-0.45813,-0.52191
2.80000,-0.46653,-0.53875
2.85000,-0.47507,-0.54689
2.90000,-0.48347,-0.57154
2.95000,-0.49160,-0.57908
3.00000,-0.50013,-0.59713
3.05000,-0.50853,-0.61077
3.10000,-0.51667,-0.62752
3.15000,-0.52493,-0.64093
3.20000,-0.53333,-0.65676
3.25000,-0.54133,-0.67395
3.30000,-0.54960,-0.68624
3.35000,-0.55827,-0.70773
3.40000,-0.56653,-0.71595
3.45000,-0.57480,-0.74214
3.50000,-0.58333,-0.74915
3.55000,-0.59173,-0.77225
3.60000,-0.60013,-0.78420
3.65000,-0.60840,-0.80387
3.70000,-0.61680,-0.81471
3.75000,-0.62520,-0.84027
3.80000,-0.63347,-0.84856
3.85000,-0.64147,-0.86970
3.90000,-0.65000,-0.88112
3.95000,-0.65853,-0.90383
4.00000,-0.66653,-0.91466
4.05000,-0.67480,-0.93567
4.10000,-0.68320,-0.94944
4.15000,-0.69133,-0.96858
4.20000,-0.69973,-0.98059
4.25000,-0.70826,-1.00239
4.30000,-0.71666,-1.01744
4.35000,-0.72493,-1.03574
4.40000,-0.73346,-1.05172
4.45000,-0.74173,-1.06959
4.50000,-0.75000,-1.08581
4.55000,-0.75840,-1.10197
4.60000,-0.76680,-1.12133
4.65000,-0.77520,-1.13568
4.70000,-0.78346,-1.15526
4.75000,-0.79160,-1.17002
4.80000,-0.80000,-1.18569
4.85000,-0.80840,-1.20644
4.90000,-0.81653,-1.21997
4.95000,-0.82493,-1.23848
5.00000,-0.83333,-1.25468
5.05000,-0.84146,-1.27053
5.10000,-0.84986,-1.28858
5.15000,-0.85853,-1.30578
5.20000,-0.86666,-1.32336
5.25000,-0.87493,-1.33868
5.30000,-0.88346,-1.35884
5.35000,-0.89173,-1.37101
5.40000,-0.90000,-1.39481
5.45000,-0.90853,-1.40481
5.50000,-0.91680,-1.42693
5.55000,-0.92493,-1.43969
5.60000,-0.93333,-1.45723
5.65000,-0.94160,-1.47376
5.70000,-0.95000,-1.49174
5.75000,-0.95813,-1.50530
5.80000,-0.96640,-1.52435
5.85000,-0.97493,-1.53802
5.90000,-0.98333,-1.55740
5.95000,-0.99160,-1.57084
6.00000,-0.99986,-1.58569
6.05000,-1.00840,-1.59800
6.10000,-1.01666,-1.60878
6.15000,-1.02493,-1.62459
6.20000,-1.03346,-1.64206
6.25000,-1.04173,-1.65386
6.30000,-1.04986,-1.66899
6.35000,-1.05813,-1.68043
6.40000,-1.06666,-1.69063
6.45000,-1.07480,-1.70194
6.50000,-1.08306,-1.70959
6.55000,-1.09160,-1.72095
6.60000,-1.09973,-1.72654
6.65000,-1.10800,-1.74576
6.70000,-1.11653,-1.76253
6.75000,-1.12493,-1.78625
6.80000,-1.13333,-1.80088
6.85000,-1.14160,-1.82381
6.90000,-1.15000,-1.83798
6.95000,-1.15840,-1.85830
7.00000,-1.16680,-1.87499
7.05000,-1.17493,-1.89339
7.10000,-1.18346,-1.90877
7.15000,-1.19173,-1.92652
7.20000,-1.19973,-1.94520
7.25000,-1.20813,-1.95920
7.30000,-1.21653,-1.97786
7.35000,-1.22466,-1.99478
7.40000,-1.23306,-2.01197
7.45000,-1.24173,-2.02747
7.50000,-1.25000,-2.04601
7.55000,-1.25826,-2.06004
7.60000,-1.26680,-2.08163
7.65000,-1.27493,-2.09482
7.70000,-1.28306,-2.11565
7.75000,-1.29160,-2.12681
7.80000,-1.30000,-2.15016
7.85000,-1.30853,-2.16328
7.90000,-1.31693,-2.18328
7.95000,-1.32506,-2.19858
8.00000,-1.33346,-2.21763
8.05000,-1.34160,-2.22809
8.10000,-1.34960,-2.25027
8.15000,-1.35813,-2.26066
8.20000,-1.36653,-2.28163
8.25000,-1.37466,-2.29173
8.30000,-1.38320,-2.30242
8.35000,-1.39173,-2.30436
8.40000,-1.39986,-2.32346
8.45000,-1.40813,-2.29445
8.50000,-1.41693,-2.29777
8.55000,-1.42520,-2.32174
8.60000,-1.43333,-2.34472
8.65000,-1.44186,-2.35754
8.70000,-1.45026,-2.38215
8.75000,-1.45826,-2.39217
8.80000,-1.46666,-2.41420
8.85000,-1.47493,-2.42749
8.90000,-1.48333,-2.44342
8.95000,-1.49160,-2.39721
9.00000,-1.49973,-2.42394
9.05000,-1.50826,-2.43928
9.10000,-1.51666,-2.46716
9.15000,-1.52480,-2.47908
9.20000,-1.53320,-2.50105
9.25000,-1.54173,-2.51687
9.30000,-1.55000,-2.53758
9.35000,-1.55826,-2.55096
9.40000,-1.56680,-2.57252
9.45000,-1.57520,-2.58723
9.50000,-1.58320,-2.60663
9.55000,-1.59146,-2.61821
9.60000,-1.60000,-2.64236
9.65000,-1.60813,-2.65237
9.70000,-1.61626,-2.67188
9.75000,-1.62466,-2.68412
9.80000,-1.63293,-2.70329
9.85000,-1.64120,-2.71775
9.90000,-1.64973,-2.73578
9.95000,-1.65826,-2.74921
10.00000,-1.66653,-2.76900
10.05000,-1.67493,-2.78205
10.10000,-1.68333,-2.80232
10.15000,-1.69186,-2.81308
10.20000,-1.70013,-2.83469
10.25000,-1.70826,-2.84470
10.30000,-1.71680,-2.86389
10.35000,-1.72506,-2.87848
10.40000,-1.73320,-2.89492
10.45000,-1.74160,-2.90867
10.50000,-1.75026,-2.92634
10.55000,-1.75826,-2.93995
10.60000,-1.76653,-2.95627
10.65000,-1.77506,-2.96872
10.70000,-1.78320,-2.98576
10.75000,-1.79146,-2.99804
10.80000,-1.80000,-3.01596
10.85000,-1.80840,-3.02611
10.90000,-1.81680,-3.04420
10.95000,-1.82520,-3.05833
11.00000,-1.83346,-3.07060
11.05000,-1.84186,-3.08616
11.10000,-1.85026,-3.10017
11.15000,-1.85813,-3.11491
11.20000,-1.86666,-3.12720
11.25000,-1.87493,-3.14170
11.30000,-1.88293,-3.15518
11.35000,-1.89160,-3.17018
11.40000,-1.90000,-3.18357
11.45000,-1.90800,-3.19987
11.50000,-1.91640,-3.21036
11.55000,-1.92506,-3.22779
11.60000,-1.93320,-3.24039
11.65000,-1.94146,-3.25659
11.70000,-1.95013,-3.26812
11.75000,-1.95853,-3.28754
11.80000,-1.96680,-3.29765
11.85000,-1.97520,-3.31448
11.90000,-1.98360,-3.32635
11.95000,-1.99173,-3.34169
12.00000,-2.00013,-3.35298
12.05000,-2.00826,-3.36837
12.10000,-2.01666,-3.37923
12.15000,-2.02493,-3.39445
12.20000,-2.03306,-3.40589
12.25000,-2.04146,-3.42144
12.30000,-2.04986,-3.43409
12.35000,-2.05813,-3.44934
12.40000,-2.06653,-3.46019
12.45000,-2.07506,-3.47596
12.50000,-2.08346,-3.49028
12.55000,-2.09159,-3.50374
12.60000,-2.10013,-3.51609
12.65000,-2.10853,-3.53241
12.70000,-2.11666,-3.54330
12.75000,-2.12493,-3.55730
12.80000,-2.13333,-3.57012
12.85000,-2.14146,-3.58374
12.90000,-2.14973,-3.59614
12.95000,-2.15826,-3.60968
13.00000,-2.16653,-3.62276
13.05000,-2.17479,-3.63674
13.10000,-2.18319,-3.64889
13.15000,-2.19159,-3.66307
13.20000,-2.19986,-3.67518
13.25000,-2.20839,-3.68910
13.30000,-2.21666,-3.70386
13.35000,-2.22506,-3.71503
13.40000,-2.23333,-3.72837
13.45000,-2.24146,-3.74140
13.50000,-2.24999,-3.75140
13.55000,-2.25826,-3.76859
13.60000,-2.26626,-3.77860
13.65000,-2.27466,-3.79377
13.70000,-2.28333,-3.80565
13.75000,-2.29146,-3.81979
13.80000,-2.29959,-3.83251
13.85000,-2.30826,-3.84408
13.90000,-2.31666,-3.86002
13.95000,-2.32493,-3.86886
14.00000,-2.33346,-3.88584
14.05000,-2.34186,-3.89820
14.10000,-2.35013,-3.90835
14.15000,-2.35853,-3.92351
14.20000,-2.36666,-3.93417
14.25000,-2.37506,-3.94750
14.30000,-2.38333,-3.95857
14.35000,-2.39146,-3.97275
14.40000,-2.40013,-3.98242
14.45000,-2.40839,-3.99777
14.50000,-2.41653,-4.00788
14.55000,-2.42506,-4.01561
14.60000,-2.43346,-4.03665
14.65000,-2.44146,-4.03990
14.70000,-2.44986,-4.05886
14.75000,-2.45853,-4.06675
14.80000,-2.46666,-4.08140
14.85000,-2.47493,-4.09257
14.90000,-2.48359,-4.10447
14.95000,-2.49186,-4.11673
15.00000,-2.49999,-4.12883
15.05000,-2.50839,-4.13963
15.10000,-2.51666,-4.15143
15.15000,-2.52479,-4.16031
15.20000,-2.53319,-4.17563
15.25000,-2.54146,-4.18057
15.30000,-2.54973,-4.19699
15.35000,-2.55799,-4.20482
15.40000,-2.56626,-4.21871
15.45000,-2.57506,-4.22828
15.50000,-2.58346,-4.24176
15.55000,-2.59159,-4.25379
15.60000,-2.60013,-4.26146
15.65000,-2.60853,-4.27550
15.70000,-2.61679,-4.28470
15.75000,-2.62493,-4.29880
15.80000,-2.63346,-4.30032
15.85000,-2.64186,-4.32216
15.90000,-2.64999,-4.32434
15.95000,-2.65826,-4.33972
16.00000,-2.66666,-4.34407
16.05000,-2.67479,-4.36042
16.10000,-2.68293,-4.36548
16.15000,-2.69146,-4.37644
16.20000,-2.69986,-4.38801
16.25000,-2.70813,-4.39842
16.30000,-2.71653,-4.40875
16.35000,-2.72506,-4.41887
16.40000,-2.73333,-4.43071
16.45000,-2.74173,-4.44160
16.50000,-2.75013,-4.45021
16.55000,-2.75853,-4.46073
16.60000,-2.76666,-4.47156
16.65000,-2.77479,-4.47760
16.70000,-2.78333,-4.49340
16.75000,-2.79186,-4.49604
16.80000,-2.79986,-4.51626
16.85000,-2.80813,-4.50987
16.90000,-2.81666,-4.54141
16.95000,-2.82479,-4.52738
17.00000,-2.83306,-4.55800
17.05000,-2.84159,-4.55116
17.10000,-2.84973,-4.57363
17.15000,-2.85799,-4.57022
17.20000,-2.86653,-4.59712
17.25000,-2.87493,-4.58437
17.30000,-2.88319,-4.62099
17.35000,-2.89159,-4.60297
17.40000,-2.89986,-4.63756
17.45000,-2.90839,-4.62491
17.50000,-2.91666,-4.65214
17.55000,-2.92479,-4.64858
17.60000,-2.93333,-4.66572
17.65000,-2.94173,-4.67238
17.70000,-2.94973,-4.68041
17.75000,-2.95826,-4.69006
17.80000,-2.96666,-4.70019
17.85000,-2.97466,-4.71008
17.90000,-2.98306,-4.71456
17.95000,-2.99186,-4.73054
18.00000,-3.00013,-4.73391
18.05000,-3.00839,-4.75055
18.10000,-3.01706,-4.75047
18.15000,-3.02519,-4.76737
18.20000,-3.03346,-4.76850
18.25000,-3.04186,-4.78482
18.30000,-3.05013,-4.77766
18.35000,-3.05839,-4.81129
18.40000,-3.06666,-4.78937
18.45000,-3.07493,-4.82433
18.50000,-3.08333,-4.81526
18.55000,-3.09159,-4.83366
18.60000,-3.09986,-4.83527
18.65000,-3.10826,-4.85059
18.70000,-3.11679,-4.85151
18.75000,-3.12479,-4.86765
18.80000,-3.13319,-4.86697
18.85000,-3.14173,-4.88313
18.90000,-3.14999,-4.88581
18.95000,-3.15799,-4.89514
19.00000,-3.16653,-4.90318
19.05000,-3.17493,-4.90757
19.10000,-3.18306,-4.92005
19.15000,-3.19133,-4.92438
19.20000,-3.19986,-4.93448
19.25000,-3.20813,-4.93907
19.30000,-3.21639,-4.94926
19.35000,-3.22493,-4.95839
19.40000,-3.23333,-4.96040
19.45000,-3.24159,-4.97526
19.50000,-3.24999,-4.97951
19.55000,-3.25839,-4.98390
19.60000,-3.26666,-4.99932
19.65000,-3.27493,-4.99619
19.70000,-3.28319,-5.01295
19.75000,-3.29173,-5.01096
19.80000,-3.29999,-5.02841
19.85000,-3.30826,-5.02773
19.90000,-3.31666,-5.04046
19.95000,-3.32506,-5.04451
20.00000,-3.33306,-5.05381
20.05000,-3.34146,-5.05933
20.10000,-3.34999,-5.06397
20.15000,-3.35813,-5.07691
20.20000,-3.36639,-5.07786
20.25000,-3.37506,-5.08948
20.30000,-3.38333,-5.09268
20.35000,-3.39159,-5.10647
20.40000,-3.40013,-5.10537
20.45000,-3.40852,-5.12211
20.50000,-3.41666,-5.11821
20.55000,-3.42506,-5.13646
20.60000,-3.43332,-5.13305
20.65000,-3.44186,-5.14634
20.70000,-3.45012,-5.15029
20.75000,-3.45826,-5.16112
20.80000,-3.46679,-5.15898
20.85000,-3.47506,-5.17811
20.90000,-3.48306,-5.17344
20.95000,-3.49159,-5.18571
21.00000,-3.49999,-5.19273
21.05000,-3.50812,-5.19734
21.10000,-3.51652,-5.20359
21.15000,-3.52519,-5.21466
21.20000,-3.53346,-5.22002
21.25000,-3.54159,-5.22818
21.30000,-3.55026,-5.23136
21.35000,-3.55839,-5.24533
21.40000,-3.56666,-5.24388
21.45000,-3.57492,-5.25452
21.50000,-3.58332,-5.25927
21.55000,-3.59159,-5.26834
21.60000,-3.59986,-5.27008
21.65000,-3.60812,-5.28123
21.70000,-3.61652,-5.28517
21.75000,-3.62492,-5.28849
21.80000,-3.63306,-5.30295
21.85000,-3.64146,-5.30140
21.90000,-3.64999,-5.31266
21.95000,-3.65826,-5.31734
22.00000,-3.66652,-5.32577
22.05000,-3.67519,-5.32943
22.10000,-3.68332,-5.33942
22.15000,-3.69159,-5.34061
22.20000,-3.70012,-5.35366
22.25000,-3.70852,-5.35086
22.30000,-3.71652,-5.36895
22.35000,-3.72479,-5.36065
22.40000,-3.73332,-5.37965
22.45000,-3.74146,-5.37445
22.50000,-3.74972,-5.38953
22.55000,-3.75826,-5.39033
22.60000,-3.76652,-5.39725
22.65000,-3.77479,-5.40430
22.70000,-3.78319,-5.41111
22.75000,-3.79159,-5.41622
22.80000,-3.79999,-5.42342
22.85000,-3.80826,-5.43341
22.90000,-3.81652,-5.42786
22.95000,-3.82506,-5.45208
23.00000,-3.83346,-5.43648
23.05000,-3.84159,-5.46684
23.10000,-3.84999,-5.44786
23.15000,-3.85839,-5.47462
23.20000,-3.86639,-5.46505
23.25000,-3.87492,-5.48474
23.30000,-3.88346,-5.47390
23.35000,-3.89146,-5.50004
23.40000,-3.89972,-5.48610
23.45000,-3.90839,-5.50955
23.50000,-3.91666,-5.50003
23.55000,-3.92492,-5.52123
23.60000,-3.93346,-5.51382
23.65000,-3.94172,-5.52975
23.70000,-3.94999,-5.53096
23.75000,-3.95839,-5.53859
23.80000,-3.96666,-5.54228
23.85000,-3.97506,-5.55329
23.90000,-3.98346,-5.55228
23.95000,-3.99159,-5.56665
24.00000,-4.00012,-5.55987
24.05000,-4.00839,-5.58212
24.10000,-4.01639,-5.57079
24.15000,-4.02492,-5.58827
24.20000,-4.03332,-5.59152
24.25000,-4.04132,-5.59502
24.30000,-4.04986,-5.60286
24.35000,-4.05852,-5.61163
24.40000,-4.06666,-5.60959
24.45000,-4.07492,-5.62620
24.50000,-4.08346,-5.62029
24.55000,-4.09172,-5.63647
24.60000,-4.09999,-5.63192
24.65000,-4.10839,-5.64601
24.70000,-4.11666,-5.64414
24.75000,-4.12492,-5.65649
24.80000,-4.13332,-5.65503
24.85000,-4.14146,-5.66737
24.90000,-4.14999,-5.66358
24.95000,-4.15826,-5.68231
25.00000,-4.16639,-5.67281
25.05000,-4.17479,-5.69301
25.10000,-4.18332,-5.68232
25.15000,-4.19159,-5.70555
25.20000,-4.19986,-5.69413
25.25000,-4.20839,-5.71554
25.30000,-4.21666,-5.70708
25.35000,-4.22479,-5.72355
25.40000,-4.23332,-5.71862
25.45000,-4.24172,-5.73336
25.50000,-4.24986,-5.72893
25.55000,-4.25812,-5.74224
25.60000,-4.26666,-5.73841
25.65000,-4.27479,-5.75350
25.70000,-4.28306,-5.74525
25.75000,-4.29159,-5.76472
25.80000,-4.29986,-5.75558
25.85000,-4.30812,-5.77438
25.90000,-4.31652,-5.76642
25.95000,-4.32492,-5.78395
26.00000,-4.33332,-5.77629
26.05000,-4.34172,-5.79555
26.10000,-4.34999,-5.78623
26.15000,-4.35839,-5.80581
26.20000,-4.36679,-5.79371
26.25000,-4.37492,-5.81935
26.30000,-4.38332,-5.80130
26.35000,-4.39172,-5.82576
26.40000,-4.39972,-5.81756
26.45000,-4.40812,-5.82872
26.50000,-4.41666,-5.82885
26.55000,-4.42479,-5.83960
26.60000,-4.43292,-5.83812
26.65000,-4.44159,-5.84913
26.70000,-4.44986,-5.85021
26.75000,-4.45812,-5.86068
26.80000,-4.46666,-5.86075
26.85000,-4.47506,-5.87090
26.90000,-4.48346,-5.87393
26.95000,-4.49186,-5.88251
27.00000,-4.50012,-5.88461
27.05000,-4.50852,-5.89142
27.10000,-4.51679,-5.89703
27.15000,-4.52479,-5.89996
27.20000,-4.53346,-5.90644
27.25000,-4.54186,-5.91278
27.30000,-4.54986,-5.91576
27.35000,-4.55826,-5.92418
27.40000,-4.56679,-5.92459
27.45000,-4.57492,-5.93384
27.50000,-4.58332,-5.93540
27.55000,-4.59172,-5.94187
27.60000,-4.59999,-5.94764
27.65000,-4.60826,-5.95242
27.70000,-4.61692,-5.95732
27.75000,-4.62519,-5.96295
27.80000,-4.63332,-5.96757
27.85000,-4.64186,-5.97174
27.90000,-4.65012,-5.97952
27.95000,-4.65826,-5.97933
28.00000,-4.66666,-5.98853
28.05000,-4.67479,-5.99070
28.10000,-4.68319,-5.99599
28.15000,-4.69146,-6.00131
28.20000,-4.69972,-6.00843
28.25000,-4.70812,-6.01038
28.30000,-4.71666,-6.01873
28.35000,-4.72492,-6.02082
28.40000,-4.73332,-6.02891
28.45000,-4.74172,-6.03062
28.50000,-4.74999,-6.03663
28.55000,-4.75826,-6.04174
28.60000,-4.76679,-6.04546
28.65000,-4.77506,-6.05190
28.70000,-4.78319,-6.05478
28.75000,-4.79145,-6.06032
28.80000,-4.79999,-6.06499
28.85000,-4.80812,-6.07048
28.90000,-4.81639,-6.07330
28.95000,-4.82492,-6.07975
29.00000,-4.83319,-6.08359
29.05000,-4.84132,-6.08927
29.10000,-4.84985,-6.09328
29.15000,-4.85839,-6.09942
29.20000,-4.86679,-6.10484
29.25000,-4.87506,-6.10962
29.30000,-4.88332,-6.11506
29.35000,-4.89185,-6.12002
29.40000,-4.90012,-6.12666
29.45000,-4.90825,-6.12760
29.50000,-4.91679,-6.13638
29.55000,-4.92505,-6.13964
29.60000,-4.93319,-6.14480
29.65000,-4.94145,-6.14773
29.70000,-4.94999,-6.15487
29.75000,-4.95812,-6.15801
29.80000,-4.96639,-6.16474
29.85000,-4.97492,-6.16881
29.90000,-4.98305,-6.17318
29.95000,-4.99145,-6.18073
30.00000,-4.99999,-6.18399
30.05000,-5.00852,-6.19093
30.10000,-5.01679,-6.19494
30.15000,-5.02519,-6.20183
30.20000,-5.03332,-6.20307
30.25000,-5.04172,-6.20997
30.30000,-5.05012,-6.21420
30.35000,-5.05812,-6.22014
30.40000,-5.06665,-6.22224
30.45000,-5.07492,-6.23000
30.50000,-5.08292,-6.23215
30.55000,-5.09145,-6.23851
30.60000,-5.09999,-6.24276
30.65000,-5.10812,-6.24722
30.70000,-5.11652,-6.25504
30.75000,-5.12519,-6.25681
30.80000,-5.13319,-6.26291
30.85000,-5.14145,-6.26727
30.90000,-5.15012,-6.27326
30.95000,-5.15852,-6.27595
31.00000,-5.16665,-6.28180
31.05000,-5.17505,-6.28539
31.10000,-5.18332,-6.28937
31.15000,-5.19145,-6.29346
31.20000,-5.19985,-6.29735
31.25000,-5.20812,-6.30185
31.30000,-5.21665,-6.30598
31.35000,-5.22492,-6.30735
31.40000,-5.23305,-6.31621
31.45000,-5.24159,-6.31431
31.50000,-5.25012,-6.32334
31.55000,-5.25825,-6.32372
31.60000,-5.26665,-6.33058
31.65000,-5.27505,-6.33061
31.70000,-5.28332,-6.33761
31.75000,-5.29159,-6.33845
31.80000,-5.30012,-6.34546
31.85000,-5.30852,-6.34693
31.90000,-5.31652,-6.35308
31.95000,-5.32492,-6.34944
32.00000,-5.33332,-6.35712
32.05000,-5.34145,-6.35622
32.10000,-5.34972,-6.36328
32.15000,-5.35812,-6.36315
32.20000,-5.36639,-6.37028
32.25000,-5.37465,-6.37097
32.30000,-5.38319,-6.37767
32.35000,-5.39159,-6.37942
32.40000,-5.39999,-6.38548
32.45000,-5.40825,-6.38615
32.50000,-5.41665,-6.39197
32.55000,-5.42505,-6.39102
32.60000,-5.43332,-6.39865
32.65000,-5.44145,-6.39757
32.70000,-5.44999,-6.40403
32.75000,-5.45839,-6.40474
32.80000,-5.46652,-6.40961
32.85000,-5.47492,-6.40836
32.90000,-5.48345,-6.41690
32.95000,-5.49159,-6.41544
33.00000,-5.49972,-6.42104
33.05000,-5.50839,-6.41899
33.10000,-5.51665,-6.42846
33.15000,-5.52492,-6.42530
33.20000,-5.53345,-6.43192
33.25000,-5.54172,-6.43152
33.30000,-5.55012,-6.43703
33.35000,-5.55839,-6.43548
33.40000,-5.56665,-6.44030
33.45000,-5.57505,-6.43934
33.50000,-5.58345,-6.44584
33.55000,-5.59159,-6.44277
33.60000,-5.60012,-6.44787
33.65000,-5.60839,-6.44733
33.70000,-5.61639,-6.45113
33.75000,-5.62492,-6.44910
33.80000,-5.63332,-6.45536
33.85000,-5.64145,-6.45248
33.90000,-5.64999,-6.45955
33.95000,-5.65852,-6.45558
34.00000,-5.66665,-6.46282
34.05000,-5.67479,-6.45882
34.10000,-5.68345,-6.46399
34.15000,-5.69172,-6.46318
34.20000,-5.69985,-6.46568
34.25000,-5.70839,-6.46639
34.30000,-5.71665,-6.46965
34.35000,-5.72492,-6.46828
34.40000,-5.73332,-6.47186
34.45000,-5.74159,-6.47134
34.50000,-5.74985,-6.47490
34.55000,-5.75825,-6.47410
34.60000,-5.76639,-6.47790
34.65000,-5.77479,-6.47682
34.70000,-5.78332,-6.48208
34.75000,-5.79159,-6.48267
34.80000,-5.79985,-6.48373
34.85000,-5.80839,-6.48654
34.90000,-5.81679,-6.48790
34.95000,-5.82492,-6.48933
35.00000,-5.83345,-6.49038
35.05000,-5.84172,-6.49278
35.10000,-5.84972,-6.49170
35.15000,-5.85812,-6.49429
35.20000,-5.86665,-6.49557
35.25000,-5.87492,-6.49786
35.30000,-5.88319,-6.49871
35.35000,-5.89172,-6.50257
35.40000,-5.89985,-6.49920
35.45000,-5.90812,-6.50665
35.50000,-5.91665,-6.50259
35.55000,-5.92505,-6.50900
35.60000,-5.93332,-6.50724
35.65000,-5.94159,-6.51412
35.70000,-5.94999,-6.50892
35.75000,-5.95839,-6.51765
35.80000,-5.96679,-6.51397
35.85000,-5.97492,-6.52077
35.90000,-5.98345,-6.51661
35.95000,-5.99172,-6.52504
36.00000,-5.99972,-6.52087
36.05000,-6.00825,-6.52695
36.10000,-6.01665,-6.52435
36.15000,-6.02479,-6.53300
36.20000,-6.03305,-6.52416
36.25000,-6.04159,-6.54022
36.30000,-6.04972,-6.52824
36.35000,-6.05799,-6.54158
36.40000,-6.06665,-6.53696
36.45000,-6.07505,-6.54609
36.50000,-6.08319,-6.54261
36.55000,-6.09172,-6.55061
36.60000,-6.09998,-6.54768
36.65000,-6.10839,-6.55543
36.70000,-6.11679,-6.55273
36.75000,-6.12479,-6.56140
36.80000,-6.13332,-6.55533
36.85000,-6.14172,-6.56532
36.90000,-6.14985,-6.56318
36.95000,-6.15825,-6.56543
37.00000,-6.16665,-6.56870
37.05000,-6.17479,-6.57134
37.10000,-6.18319,-6.57263
37.15000,-6.19185,-6.57596
37.20000,-6.19998,-6.58188
37.25000,-6.20812,-6.58110
37.30000,-6.21692,-6.58575
37.35000,-6.22505,-6.58825
37.40000,-6.23318,-6.59094
37.45000,-6.24172,-6.59287
37.50000,-6.25012,-6.59571
37.55000,-6.25825,-6.59924
37.60000,-6.26665,-6.60053
37.65000,-6.27492,-6.60422
37.70000,-6.28332,-6.60449
37.75000,-6.29158,-6.60853
37.80000,-6.29985,-6.61091
37.85000,-6.30825,-6.61413
37.90000,-6.31678,-6.61507
37.95000,-6.32492,-6.62217
38.00000,-6.33332,-6.61997
38.05000,-6.34172,-6.62606
38.10000,-6.34998,-6.62735
38.15000,-6.35825,-6.63080
38.20000,-6.36678,-6.63210
38.25000,-6.37505,-6.63712
38.30000,-6.38332,-6.63828
38.35000,-6.39158,-6.64096
38.40000,-6.39998,-6.64232
38.45000,-6.40812,-6.64844
38.50000,-6.41638,-6.64543
38.55000,-6.42478,-6.65341
38.60000,-6.43292,-6.65251
38.65000,-6.44132,-6.65396
38.70000,-6.44985,-6.66364
38.75000,-6.45825,-6.65957
38.80000,-6.46665,-6.66925
38.85000,-6.47505,-6.66773
38.90000,-6.48332,-6.67274
38.95000,-6.49172,-6.67502
39.00000,-6.49998,-6.67858
39.05000,-6.50812,-6.67856
39.10000,-6.51665,-6.68376
39.15000,-6.52505,-6.68568
39.20000,-6.53318,-6.68883
39.25000,-6.54158,-6.69265
39.30000,-6.54998,-6.69016
39.35000,-6.55812,-6.70148
39.40000,-6.56638,-6.69337
39.45000,-6.57492,-6.70411
39.50000,-6.58318,-6.70012
39.55000,-6.59158,-6.71049
39.60000,-6.60012,-6.70418
39.65000,-6.60838,-6.71693
39.70000,-6.61665,-6.70651
39.75000,-6.62518,-6.72472
39.80000,-6.63345,-6.70835
39.85000,-6.64172,-6.72894
39.90000,-6.65012,-6.71290
39.95000,-6.65812,-6.72947
40.00000,-6.66665,-6.71718
40.05000,-6.67505,-6.73273
40.10000,-6.68305,-6.72022
40.15000,-6.69158,-6.73615
40.20000,-6.69998,-6.72165
40.25000,-6.70812,-6.73860
40.30000,-6.71652,-6.72606
40.35000,-6.72518,-6.74127
40.40000,-6.73332,-6.73107
40.45000,-6.74145,-6.74215
40.50000,-6.75012,-6.73325
40.55000,-6.75825,-6.74448
40.60000,-6.76652,-6.73572
40.65000,-6.77505,-6.74352
40.70000,-6.78345,-6.74257
40.75000,-6.79158,-6.74006
40.80000,-6.79998,-6.74688
40.85000,-6.80825,-6.73916
40.90000,-6.81665,-6.74757
40.95000,-6.82492,-6.73938
41.00000,-6.83305,-6.74887
41.05000,-6.84158,-6.73855
41.10000,-6.85012,-6.75102
41.15000,-6.85825,-6.74295
41.20000,-6.86665,-6.74969
41.25000,-6.87518,-6.74599
41.30000,-6.88345,-6.75108
41.35000,-6.89158,-6.74793
41.40000,-6.90012,-6.75061
41.45000,-6.90838,-6.75162
41.50000,-6.91652,-6.74565
41.55000,-6.92492,-6.75753
41.60000,-6.93345,-6.74327
41.65000,-6.94145,-6.75984
41.70000,-6.94972,-6.74552
41.75000,-6.95825,-6.75688
41.80000,-6.96652,-6.74979
41.85000,-6.97478,-6.75698
41.90000,-6.98332,-6.75123
41.95000,-6.99172,-6.76110
42.00000,-6.99998,-6.74957
42.05000,-7.00838,-6.76741
42.10000,-7.01665,-6.74784
42.15000,-7.02518,-6.76551
42.20000,-7.03332,-6.75597
42.25000,-7.04158,-6.76055
42.30000,-7.05012,-6.75737
42.35000,-7.05838,-6.76228
42.40000,-7.06638,-6.75854
42.45000,-7.07478,-6.76098
42.50000,-7.08332,-6.76105
42.55000,-7.09132,-6.76074
42.60000,-7.09958,-6.76444
42.65000,-7.10825,-6.75857
42.70000,-7.11665,-6.76854
42.75000,-7.12492,-6.76093
42.80000,-7.13345,-6.77252
42.85000,-7.14185,-6.76168
42.90000,-7.14998,-6.77608
42.95000,-7.15838,-6.76433
43.00000,-7.16678,-6.77711
43.05000,-7.17505,-6.76765
43.10000,-7.18332,-6.77660
43.15000,-7.19145,-6.77271
43.20000,-7.19998,-6.77604
43.25000,-7.20838,-6.77686
43.30000,-7.21652,-6.78059
43.35000,-7.22492,-6.77839
43.40000,-7.23332,-6.78180
43.45000,-7.24145,-6.78140
43.50000,-7.24985,-6.78450
43.55000,-7.25852,-6.78508
43.60000,-7.26665,-6.78499
43.65000,-7.27492,-6.79249
43.70000,-7.28345,-6.78280
43.75000,-7.29172,-6.79801
43.80000,-7.29998,-6.78535
43.85000,-7.30838,-6.79865
43.90000,-7.31678,-6.79017
43.95000,-7.32492,-6.80260
44.00000,-7.33318,-6.78934
44.05000,-7.34158,-6.80429
44.10000,-7.34998,-6.79573
44.15000,-7.35825,-6.80338
44.20000,-7.36638,-6.80067
44.25000,-7.37492,-6.80518
44.30000,-7.38332,-6.80557
44.35000,-7.39158,-6.81090
44.40000,-7.39998,-6.80768
44.45000,-7.40852,-6.81402
44.50000,-7.41665,-6.81428
44.55000,-7.42478,-6.81742
44.60000,-7.43332,-6.81544
44.65000,-7.44172,-6.82190
44.70000,-7.44985,-6.82478
44.75000,-7.45811,-6.82102
44.80000,-7.46665,-6.83124
44.85000,-7.47478,-6.82626
44.90000,-7.48305,-6.83386
44.95000,-7.49158,-6.83170
45.00000,-7.49985,-6.83995
45.05000,-7.50811,-6.83578
45.10000,-7.51651,-6.84512
45.15000,-7.52505,-6.84231
45.20000,-7.53332,-6.84731
45.25000,-7.54171,-6.85361
45.30000,-7.54998,-6.84911
45.35000,-7.55851,-6.85870
45.40000,-7.56678,-6.85677
45.45000,-7.57478,-6.86143
45.50000,-7.58332,-6.85961
45.55000,-7.59171,-6.86834
45.60000,-7.59985,-6.86673
45.65000,-7.60811,-6.87216
45.70000,-7.61665,-6.87109
45.75000,-7.62478,-6.88156
45.80000,-7.63305,-6.87397
45.85000,-7.64171,-6.88595
45.90000,-7.64998,-6.88011
45.95000,-7.65811,-6.89040
46.00000,-7.66665,-6.88697
46.05000,-7.67505,-6.89467
46.10000,-7.68331,-6.89262
46.15000,-7.69171,-6.90011
46.20000,-7.70011,-6.89883
46.25000,-7.70838,-6.90518
46.30000,-7.71678,-6.90550
46.35000,-7.72491,-6.90967
46.40000,-7.73345,-6.91035
46.45000,-7.74171,-6.91470
46.50000,-7.74971,-6.91597
46.55000,-7.75825,-6.91666
46.60000,-7.76665,-6.92043
46.65000,-7.77478,-6.92204
46.70000,-7.78305,-6.92241
46.75000,-7.79171,-6.92698
46.80000,-7.79985,-6.92767
46.85000,-7.80811,-6.93110
46.90000,-7.81678,-6.93099
46.95000,-7.82505,-6.93506
47.00000,-7.83318,-6.93460
47.05000,-7.84158,-6.93584
47.10000,-7.84998,-6.93812
47.15000,-7.85825,-6.93906
47.20000,-7.86665,-6.94042
47.25000,-7.87505,-6.94256
47.30000,-7.88345,-6.94363
47.35000,-7.89171,-6.94652
47.40000,-7.89985,-6.94727
47.45000,-7.90838,-6.94794
47.50000,-7.91678,-6.94953
47.55000,-7.92491,-6.95244
47.60000,-7.93331,-6.95236
47.65000,-7.94185,-6.95296
47.70000,-7.94998,-6.95589
47.75000,-7.95825,-6.95637
47.80000,-7.96678,-6.95662
47.85000,-7.97518,-6.96025
47.90000,-7.98318,-6.95971
47.95000,-7.99158,-6.96143
48.00000,-8.00011,-6.96187
48.05000,-8.00825,-6.96489
48.10000,-8.01638,-6.96352
48.15000,-8.02478,-6.96504
48.20000,-8.03291,-6.96506
48.25000,-8.04131,-6.96680
48.30000,-8.04971,-6.96829
48.35000,-8.05825,-6.97044
48.40000,-8.06651,-6.97217
48.45000,-8.07478,-6.97469
48.50000,-8.08318,-6.97389
48.55000,-8.09158,-6.97711
48.60000,-8.09998,-6.97959
48.65000,-8.10811,-6.98094
48.70000,-8.11665,-6.98179
48.75000,-8.12505,-6.98616
48.80000,-8.13318,-6.98612
48.85000,-8.14158,-6.98736
48.90000,-8.14998,-6.98944
48.95000,-8.15811,-6.99188
49.00000,-8.16625,-6.99109
49.05000,-8.17505,-6.99335
49.10000,-8.18331,-6.99541
49.15000,-8.19171,-6.99853
49.20000,-8.20011,-6.99939
49.25000,-8.20851,-7.00225
49.30000,-8.21678,-7.00276
49.35000,-8.22505,-7.00616
49.40000,-8.23345,-7.00536
49.45000,-8.24185,-7.00923
49.50000,-8.25011,-7.00837
49.55000,-8.25811,-7.01107
49.60000,-8.26665,-7.01041
49.65000,-8.27491,-7.01367
49.70000,-8.28305,-7.01423
49.75000,-8.29158,-7.01702
49.80000,-8.30011,-7.02002
49.85000,-8.30811,-7.02305
49.90000,-8.31651,-7.02189
49.95000,-8.32518,-7.02640
50.00000,-8.33345,-7.02874
50.05000,-8.34158,-7.02865
50.10000,-8.35025,-7.03040
50.15000,-8.35838,-7.03341
50.20000,-8.36665,-7.03423
50.25000,-8.37518,-7.03530
50.30000,-8.38358,-7.03787
50.35000,-8.39158,-7.03932
50.40000,-8.39998,-7.03915
50.45000,-8.40825,-7.04101
50.50000,-8.41665,-7.04321
50.55000,-8.42491,-7.04504
50.60000,-8.43305,-7.04728
50.65000,-8.44158,-7.04560
50.70000,-8.44998,-7.05237
50.75000,-8.45811,-7.05198
50.80000,-8.46651,-7.05403
50.85000,-8.47505,-7.05538
50.90000,-8.48331,-7.05950
50.95000,-8.49145,-7.05827
51.00000,-8.49985,-7.06021
51.05000,-8.50838,-7.06295
51.10000,-8.51665,-7.06507
51.15000,-8.52491,-7.06667
51.20000,-8.53345,-7.06951
51.25000,-8.54145,-7.07020
51.30000,-8.54971,-7.06931
51.35000,-8.55825,-7.07289
51.40000,-8.56638,-7.07136
51.45000,-8.57465,-7.07496
51.50000,-8.58305,-7.07297
51.55000,-8.59158,-7.07909
51.60000,-8.59998,-7.07841
51.65000,-8.60825,-7.08397
51.70000,-8.61651,-7.07967
51.75000,-8.62491,-7.08729
51.80000,-8.63318,-7.08463
51.85000,-8.64145,-7.09053
51.90000,-8.64998,-7.08537
51.95000,-8.65838,-7.09809
52.00000,-8.66651,-7.09170
52.05000,-8.67505,-7.10039
52.10000,-8.68358,-7.09571
52.15000,-8.69171,-7.10738
52.20000,-8.69985,-7.09851
52.25000,-8.70838,-7.10736
52.30000,-8.71678,-7.10356
52.35000,-8.72505,-7.11169
52.40000,-8.73345,-7.10624
52.45000,-8.74171,-7.11580
52.50000,-8.75011,-7.11152
52.55000,-8.75838,-7.11811
52.60000,-8.76678,-7.11459
52.65000,-8.77518,-7.12146
52.70000,-8.78345,-7.11953
52.75000,-8.79158,-7.12339
52.80000,-8.80011,-7.12118
52.85000,-8.80851,-7.12718
52.90000,-8.81638,-7.12581
52.95000,-8.82491,-7.12668
53.00000,-8.83345,-7.12907
53.05000,-8.84145,-7.13289
53.10000,-8.84985,-7.13319
53.15000,-8.85851,-7.13714
53.20000,-8.86678,-7.14076
53.25000,-8.87491,-7.14163
53.30000,-8.88345,-7.14328
53.35000,-8.89171,-7.14612
53.40000,-8.89998,-7.14778
53.45000,-8.90838,-7.15003
53.50000,-8.91678,-7.15129
53.55000,-8.92504,-7.15397
53.60000,-8.93331,-7.15582
53.65000,-8.94158,-7.15619
53.70000,-8.94998,-7.15686
53.75000,-8.95824,-7.16052
53.80000,-8.96638,-7.16171
53.85000,-8.97491,-7.16391
53.90000,-8.98345,-7.16738
53.95000,-8.99158,-7.17092
54.00000,-8.99985,-7.17032
54.05000,-9.00838,-7.17235
54.10000,-9.01665,-7.17555
54.15000,-9.02491,-7.17614
54.20000,-9.03331,-7.17805
54.25000,-9.04171,-7.18198
54.30000,-9.04984,-7.18327
54.35000,-9.05811,-7.18431
54.40000,-9.06665,-7.18825
54.45000,-9.07465,-7.18897
54.50000,-9.08304,-7.19204
54.55000,-9.09158,-7.19532
54.60000,-9.09984,-7.19988
54.65000,-9.10811,-7.19786
54.70000,-9.11664,-7.20736
54.75000,-9.12491,-7.20291
54.80000,-9.13331,-7.21160
54.85000,-9.14158,-7.20867
54.90000,-9.14998,-7.21566
54.95000,-9.15838,-7.21308
55.00000,-9.16664,-7.22111
55.05000,-9.17478,-7.21951
55.10000,-9.18331,-7.22348
55.15000,-9.19171,-7.22593
55.20000,-9.19984,-7.22848
55.25000,-9.20824,-7.23047
55.30000,-9.21678,-7.23406
55.35000,-9.22491,-7.23546
55.40000,-9.23304,-7.23673
55.45000,-9.24158,-7.24091
55.50000,-9.24971,-7.24274
55.55000,-9.25798,-7.24619
55.60000,-9.26651,-7.24723
55.65000,-9.27504,-7.25439
55.70000,-9.28344,-7.25448
55.75000,-9.29184,-7.26068
55.80000,-9.30011,-7.26014
55.85000,-9.30838,-7.26507
55.90000,-9.31664,-7.26480
55.95000,-9.32478,-7.26978
56.00000,-9.33331,-7.26822
56.05000,-9.34158,-7.27502
56.10000,-9.34971,-7.27352
56.15000,-9.35811,-7.27752
56.20000,-9.36651,-7.27836
56.25000,-9.37464,-7.28461
56.30000,-9.38318,-7.28457
56.35000,-9.39184,-7.29178
56.40000,-9.40011,-7.29364
56.45000,-9.40824,-7.29623
56.50000,-9.41678,-7.29800
56.55000,-9.42518,-7.30082
56.60000,-9.43331,-7.30338
56.65000,-9.44171,-7.30473
56.70000,-9.45011,-7.30775
56.75000,-9.45838,-7.30916
56.80000,-9.46664,-7.31114
56.85000,-9.47491,-7.31359
56.90000,-9.48331,-7.31416
56.95000,-9.49158,-7.31892
57.00000,-9.49984,-7.32051
57.05000,-9.50824,-7.32099
57.10000,-9.51664,-7.32630
57.15000,-9.52491,-7.32751
57.20000,-9.53331,-7.32934
57.25000,-9.54171,-7.33010
57.30000,-9.54984,-7.33503
57.35000,-9.55798,-7.33243
57.40000,-9.56651,-7.33416
57.45000,-9.57504,-7.33792
57.50000,-9.58318,-7.33877
57.55000,-9.59144,-7.33760
57.60000,-9.59998,-7.34091
57.65000,-9.60824,-7.34208
57.70000,-9.61651,-7.34348
57.75000,-9.62491,-7.34446
57.80000,-9.63318,-7.34494
57.85000,-9.64131,-7.34565
57.90000,-9.64971,-7.34555
57.95000,-9.65824,-7.34763
58.00000,-9.66651,-7.34984
58.05000,-9.67491,-7.35217
58.10000,-9.68331,-7.35165
58.15000,-9.69171,-7.35367
58.20000,-9.70011,-7.35650
58.25000,-9.70838,-7.35654
58.30000,-9.71691,-7.35824
58.35000,-9.72518,-7.35963
58.40000,-9.73318,-7.36036
58.45000,-9.74144,-7.35844
58.50000,-9.74998,-7.36154
58.55000,-9.75811,-7.36288
58.60000,-9.76638,-7.36272
58.65000,-9.77504,-7.36476
58.70000,-9.78331,-7.36643
58.75000,-9.79158,-7.36870
58.80000,-9.80011,-7.36959
58.85000,-9.80838,-7.37230
58.90000,-9.81664,-7.37179
58.95000,-9.82491,-7.37417
59.00000,-9.83318,-7.37426
59.05000,-9.84171,-7.37630
59.10000,-9.85011,-7.37915
59.15000,-9.85824,-7.37972
59.20000,-9.86678,-7.37955
59.25000,-9.87518,-7.38321
59.30000,-9.88304,-7.38270
59.35000,-9.89144,-7.38333
59.40000,-9.89984,-7.38374
59.45000,-9.90784,-7.38574
59.50000,-9.91624,-7.38639
59.55000,-9.92491,-7.38947
59.60000,-9.93318,-7.39319
59.65000,-9.94144,-7.39207
59.70000,-9.95011,-7.39445
59.75000,-9.95838,-7.39599
59.80000,-9.96664,-7.39685
59.85000,-9.97504,-7.39709
59.90000,-9.98344,-7.39914
59.95000,-9.99171,-7.39936
60.00000,-9.99998,-7.40042
60.05000,-10.00824,-7.40038
60.10000,-10.01664,-7.40124
60.15000,-10.02504,-7.40234
60.20000,-10.03318,-7.40325
60.25000,-10.04171,-7.40317
60.30000,-10.05024,-7.40551
60.35000,-10.05824,-7.40621
60.40000,-10.06664,-7.40503
60.45000,-10.07518,-7.40692
60.50000,-10.08344,-7.40962
60.55000,-10.09158,-7.40786
60.60000,-10.10011,-7.40881
60.65000,-10.10851,-7.40889
60.70000,-10.11664,-7.40907
60.75000,-10.12491,-7.40765
60.80000,-10.13331,-7.40946
60.85000,-10.14144,-7.40945
60.90000,-10.14971,-7.40970
60.95000,-10.15824,-7.41173
61.00000,-10.16651,-7.41075
61.05000,-10.17478,-7.41186
61.10000,-10.18318,-7.41158
61.15000,-10.19158,-7.41108
61.20000,-10.19998,-7.41171
61.25000,-10.20824,-7.41151
61.30000,-10.21651,-7.41217
61.35000,-10.22504,-7.41221
61.40000,-10.23344,-7.41389
61.45000,-10.24158,-7.41323
61.50000,-10.24998,-7.41249
61.55000,-10.25837,-7.41479
61.60000,-10.26651,-7.41360
61.65000,-10.27491,-7.41405
61.70000,-10.28331,-7.41406
61.75000,-10.29158,-7.41570
61.80000,-10.29984,-7.41542
61.85000,-10.30837,-7.41702
61.90000,-10.31664,-7.41881
61.95000,-10.32478,-7.41834
62.00000,-10.33331,-7.41931
62.05000,-10.34171,-7.42098
62.10000,-10.34997,-7.42147
62.15000,-10.35837,-7.42383
62.20000,-10.36678,-7.42435
62.25000,-10.37504,-7.42624
62.30000,-10.38344,-7.42763
62.35000,-10.39157,-7.42890
62.40000,-10.40011,-7.43000
62.45000,-10.40837,-7.43205
62.50000,-10.41637,-7.43215
62.55000,-10.42491,-7.43204
62.60000,-10.43331,-7.43663
62.65000,-10.44144,-7.43669
62.70000,-10.44984,-7.43847
62.75000,-10.45851,-7.44240
62.80000,-10.46664,-7.44472
62.85000,-10.47477,-7.44518
62.90000,-10.48331,-7.44776
62.95000,-10.49157,-7.45128
63.00000,-10.49984,-7.45132
63.05000,-10.50851,-7.45510
63.10000,-10.51677,-7.45847
63.15000,-10.52504,-7.46039
63.20000,-10.53331,-7.46202
63.25000,-10.54171,-7.46660
63.30000,-10.55011,-7.46801
63.35000,-10.55837,-7.47172
63.40000,-10.56651,-7.47329
63.45000,-10.57491,-7.47629
63.50000,-10.58331,-7.47913
63.55000,-10.59157,-7.48330
63.60000,-10.59984,-7.48506
63.65000,-10.60851,-7.48877
63.70000,-10.61664,-7.49267
63.75000,-10.62491,-7.49439
63.80000,-10.63344,-7.49664
63.85000,-10.64171,-7.50138
63.90000,-10.64984,-7.50296
63.95000,-10.65824,-7.50469
64.00000,-10.66664,-7.50788
64.05000,-10.67477,-7.51008
64.10001,-10.68304,-7.51264
64.15000,-10.69157,-7.51612
64.20000,-10.69997,-7.51824
64.25000,-10.70824,-7.51897
64.30000,-10.71664,-7.52105
64.35001,-10.72504,-7.52265
64.40000,-10.73331,-7.52505
64.45000,-10.74157,-7.52689
64.50000,-10.74984,-7.52820
64.55000,-10.75837,-7.53230
64.60001,-10.76664,-7.53552
64.65000,-10.77491,-7.53645
64.70000,-10.78331,-7.53852
64.75000,-10.79171,-7.54258
64.80000,-10.79984,-7.54265
64.85001,-10.80811,-7.54330
64.90000,-10.81664,-7.54665
64.95000,-10.82477,-7.54724
65.00000,-10.83291,-7.54851
65.05000,-10.84157,-7.55063
65.10001,-10.84997,-7.55534
65.15000,-10.85824,-7.55746
65.20000,-10.86677,-7.56023
65.25000,-10.87504,-7.56268
65.30000,-10.88331,-7.56399
65.35001,-10.89171,-7.56527
65.40000,-10.89997,-7.56773
65.45000,-10.90837,-7.56908
65.50000,-10.91677,-7.57201
65.55000,-10.92477,-7.57232
65.60001,-10.93331,-7.57296
65.65000,-10.94171,-7.57647
65.70001,-10.94971,-7.57654
65.75000,-10.95824,-7.57787
65.80000,-10.96677,-7.58036
65.85001,-10.97477,-7.58276
65.90000,-10.98304,-7.58150
65.95001,-10.99184,-7.58422
66.00000,-10.99997,-7.58754
66.05000,-11.00824,-7.58708
66.10001,-11.01691,-7.58836
66.15000,-11.02517,-7.59225
66.20001,-11.03344,-7.59163
66.25000,-11.04171,-7.59419
66.30000,-11.05011,-7.59441
66.35001,-11.05824,-7.59539
66.40000,-11.06664,-7.59543
66.45001,-11.07491,-7.59783
66.50000,-11.08331,-7.59784
66.55000,-11.09157,-7.60100
66.60001,-11.09971,-7.60148
66.65000,-11.10824,-7.60288
66.70001,-11.11677,-7.60610
66.75000,-11.12491,-7.60902
66.80000,-11.13317,-7.60845
66.85001,-11.14171,-7.60927
66.90000,-11.14997,-7.61222
66.95001,-11.15811,-7.61191
67.00000,-11.16664,-7.61328
67.05000,-11.17517,-7.61675
67.10001,-11.18331,-7.61730
67.15000,-11.19171,-7.61824
67.20001,-11.20024,-7.61994
67.25000,-11.20837,-7.62048
67.30000,-11.21651,-7.61974
67.35001,-11.22491,-7.61974
67.40000,-11.23317,-7.61890
67.45001,-11.24131,-7.61930
67.50000,-11.24984,-7.62093
67.55000,-11.25824,-7.62157
67.60001,-11.26664,-7.62358
67.65000,-11.27491,-7.62543
67.70001,-11.28331,-7.62352
67.75000,-11.29171,-7.62609
67.80000,-11.29997,-7.62428
67.85001,-11.30824,-7.62529
67.90000,-11.31677,-7.62445
67.95001,-11.32517,-7.62742
68.00000,-11.33317,-7.62541
68.05000,-11.34157,-7.62555
68.10001,-11.34997,-7.62735
68.15000,-11.35811,-7.62704
68.20001,-11.36637,-7.62537
68.25000,-11.37504,-7.62761
68.30000,-11.38317,-7.62713
68.35001,-11.39144,-7.62774
68.40000,-11.39997,-7.62654
68.45001,-11.40837,-7.62898
68.50000,-11.41664,-7.62838
68.55000,-11.42504,-7.62905
68.60001,-11.43331,-7.62886
68.65000,-11.44171,-7.62862
68.70001,-11.45011,-7.62987
68.75000,-11.45824,-7.62886
68.80000,-11.46677,-7.62793
68.85001,-11.47504,-7.62981
68.90000,-11.48304,-7.62781
68.95001,-11.49157,-7.62764
69.00000,-11.49997,-7.62886
69.05000,-11.50811,-7.62863
69.10001,-11.51650,-7.62854
69.15000,-11.52517,-7.62984
69.20001,-11.53331,-7.63091
69.25000,-11.54157,-7.62609
69.30000,-11.55024,-7.62774
69.35001,-11.55850,-7.62903
69.40000,-11.56664,-7.62743
69.45001,-11.57517,-7.62808
69.50000,-11.58357,-7.62817
69.55000,-11.59157,-7.62651
69.60001,-11.59997,-7.62644
69.65000,-11.60824,-7.62709
69.70001,-11.61664,-7.62604
69.75000,-11.62491,-7.62778
69.80000,-11.63304,-7.62708
69.85001,-11.64157,-7.62700
69.90000,-11.64997,-7.62923
69.95001,-11.65824,-7.63109
70.00000,-11.66664,-7.62924
70.05000,-11.67504,-7.62907
70.10001,-11.68344,-7.63133
70.15000,-11.69157,-7.63089
70.20001,-11.70010,-7.63185
70.25000,-11.70850,-7.63479
70.30000,-11.71664,-7.63431
70.35001,-11.72477,-7.63495
70.40000,-11.73317,-7.63432
70.45001,-11.74130,-7.63389
70.50000,-11.74944,-7.63290
70.55000,-11.75810,-7.63612
70.60001,-11.76650,-7.63670
70.65000,-11.77477,-7.63929
70.70001,-11.78317,-7.64113
70.75000,-11.79157,-7.64163
70.80000,-11.79984,-7.64478
70.85001,-11.80810,-7.64671
70.90000,-11.81637,-7.64682
70.95001,-11.82504,-7.64888
71.00000,-11.83330,-7.65257
71.05000,-11.84157,-7.65392
71.10001,-11.85010,-7.65525
71.15000,-11.85837,-7.65953
71.20001,-11.86650,-7.65801
71.25000,-11.87490,-7.65947
71.30000,-11.88330,-7.66184
71.35001,-11.89144,-7.66473
71.40000,-11.89970,-7.66266
71.45001,-11.90837,-7.66729
71.50000,-11.91650,-7.67001
71.55000,-11.92490,-7.67262
71.60001,-11.93344,-7.67418
71.65000,-11.94170,-7.67818
71.70001,-11.95010,-7.67780
71.75000,-11.95837,-7.68310
71.80000,-11.96677,-7.68340
71.85001,-11.97517,-7.68887
71.90000,-11.98344,-7.69133
71.95001,-11.99157,-7.69502
72.00000,-11.99997,-7.69737
72.05000,-12.00837,-7.70267
72.10001,-12.01650,-7.70533
72.15000,-12.02490,-7.70824
72.20001,-12.03330,-7.71334
72.25000,-12.04144,-7.71684
72.30000,-12.04984,-7.71972
72.35001,-12.05850,-7.72544
72.40000,-12.06664,-7.72998
72.45001,-12.07477,-7.73156
72.50000,-12.08344,-7.73567
72.55000,-12.09170,-7.74104
72.60001,-12.09997,-7.74362
72.65000,-12.10837,-7.74846
72.70001,-12.11677,-7.75101
72.75000,-12.12490,-7.75410
72.80000,-12.13317,-7.75596
72.85001,-12.14157,-7.76116
72.90000,-12.14997,-7.76317
72.95001,-12.15824,-7.76695
73.00000,-12.16650,-7.77017
73.05000,-12.17504,-7.77243
73.10001,-12.18344,-7.77726
73.15000,-12.19157,-7.78153
73.20001,-12.19997,-7.78229
73.25000,-12.20850,-7.78731
73.30000,-12.21664,-7.78784
73.35001,-12.22477,-7.79162
73.40000,-12.23344,-7.79114
73.45001,-12.24170,-7.79862
73.50000,-12.24984,-7.79623
73.55000,-12.25810,-7.80127
73.60001,-12.26664,-7.80181
73.65000,-12.27477,-7.80534
73.70001,-12.28304,-7.80525
73.75000,-12.29157,-7.81139
73.80000,-12.29984,-7.81201
73.85001,-12.30810,-7.81708
73.90000,-12.31650,-7.81940
73.95001,-12.32490,-7.82434
74.00000,-12.33317,-7.82797
74.05000,-12.34157,-7.83279
74.10001,-12.34997,-7.83402
74.15000,-12.35850,-7.84170
74.20001,-12.36677,-7.84660
74.25000,-12.37490,-7.85060
74.30000,-12.38344,-7.85221
74.35001,-12.39170,-7.86113
74.40000,-12.39970,-7.86294
74.45001,-12.40810,-7.86782
74.50000,-12.41664,-7.87281
74.55000,-12.42477,-7.87807
74.60001,-12.43290,-7.88279
74.65000,-12.44157,-7.88621
74.70001,-12.44984,-7.89523
74.75000,-12.45824,-7.89890
74.80000,-12.46664,-7.90448
74.85001,-12.47504,-7.91016
74.90000,-12.48330,-7.91447
74.95001,-12.49170,-7.92007
75.00000,-12.50010,-7.92424
75.05000,-12.50837,-7.93114
75.10001,-12.51677,-7.93146
75.15000,-12.52477,-7.93872
75.20001,-12.53344,-7.93788
75.25000,-12.54170,-7.94713
75.30000,-12.54984,-7.94798
75.35001,-12.55837,-7.95531
75.40000,-12.56677,-7.95859
75.45001,-12.57490,-7.96600
75.50000,-12.58317,-7.96746
75.55000,-12.59184,-7.97554
75.60001,-12.60010,-7.97888
75.65000,-12.60824,-7.98592
75.70001,-12.61690,-7.98809
75.75000,-12.62517,-7.99789
75.80000,-12.63330,-7.99645
75.85001,-12.64170,-8.00589
75.90000,-12.65010,-8.00883
75.95001,-12.65824,-8.01537
76.00000,-12.66650,-8.01865
76.05000,-12.67490,-8.02593
76.10001,-12.68330,-8.02981
76.15000,-12.69170,-8.03626
76.20001,-12.69984,-8.04057
76.25000,-12.70824,-8.04341
76.30000,-12.71664,-8.05126
76.35001,-12.72490,-8.05840
76.40000,-12.73330,-8.06222
76.45001,-12.74184,-8.06838
76.50000,-12.75010,-8.07651
76.55000,-12.75824,-8.07976
76.60001,-12.76677,-8.08596
76.65000,-12.77504,-8.09386
76.70001,-12.78317,-8.09918
76.75000,-12.79144,-8.10376
76.80000,-12.79997,-8.11201
76.85001,-12.80810,-8.11676
76.90000,-12.81637,-8.12248
76.95001,-12.82490,-8.12893
77.00000,-12.83317,-8.13595
77.05000,-12.84144,-8.14113
77.10001,-12.84997,-8.15073
77.15000,-12.85837,-8.15460
77.20001,-12.86663,-8.16410
77.25000,-12.87490,-8.16869
77.30000,-12.88317,-8.17561
77.35001,-12.89170,-8.17985
77.40000,-12.89997,-8.18910
77.45001,-12.90824,-8.19083
77.50000,-12.91677,-8.19843
77.55000,-12.92504,-8.20448
77.60001,-12.93304,-8.20840
77.65000,-12.94157,-8.21202
77.70001,-12.95010,-8.22075
77.75000,-12.95810,-8.22479
77.80000,-12.96637,-8.22938
77.85001,-12.97504,-8.23508
77.90000,-12.98330,-8.24293
77.95001,-12.99143,-8.24747
78.00000,-12.99997,-8.25316
78.05000,-13.00837,-8.26018
78.10001,-13.01677,-8.26672
78.15000,-13.02517,-8.27365
78.20001,-13.03343,-8.27832
78.25000,-13.04184,-8.28538
78.30000,-13.05010,-8.29090
78.35001,-13.05810,-8.29606
78.40000,-13.06663,-8.30088
78.45001,-13.07504,-8.30980
78.50000,-13.08304,-8.31221
78.55000,-13.09157,-8.31887
78.60001,-13.09997,-8.32484
78.65000,-13.10797,-8.33179
78.70001,-13.11650,-8.33551
78.75000,-13.12517,-8.34507
78.80000,-13.13317,-8.35031
78.85001,-13.14130,-8.35410
78.90000,-13.14997,-8.35966
78.95001,-13.15837,-8.36910
79.00000,-13.16663,-8.37393
79.05000,-13.17517,-8.38150
79.10001,-13.18357,-8.38606
79.15000,-13.19157,-8.39127
79.20001,-13.19997,-8.39398
79.25000,-13.20823,-8.40155
79.30000,-13.21663,-8.40568
79.35001,-13.22490,-8.41231
79.40000,-13.23303,-8.41729
79.45001,-13.24157,-8.42158
79.50000,-13.24983,-8.42926
79.55000,-13.25810,-8.43533
79.60001,-13.26637,-8.44013
79.65000,-13.27503,-8.44809
79.70001,-13.28330,-8.45423
79.75000,-13.29143,-8.45886
79.80000,-13.29997,-8.46295
79.85001,-13.30850,-8.47124
79.90000,-13.31650,-8.47522
79.95001,-13.32490,-8.48000
80.00000,-13.33343,-8.48718
80.05000,-13.34157,-8.48952
80.10001,-13.34970,-8.49541
80.15000,-13.35823,-8.50073
80.20001,-13.36650,-8.50422
80.25000,-13.37463,-8.50858
80.30000,-13.38317,-8.51683
80.35001,-13.39157,-8.52008
80.40000,-13.39983,-8.52715
80.45001,-13.40823,-8.53331
80.50001,-13.41663,-8.53705
80.55000,-13.42503,-8.54198
80.60001,-13.43330,-8.55001
80.65000,-13.44157,-8.55308
80.70001,-13.45010,-8.55743
80.75001,-13.45837,-8.56427
80.80000,-13.46650,-8.56816
80.85001,-13.47477,-8.57004
80.90000,-13.48343,-8.57800
80.95001,-13.49143,-8.58355
81.00001,-13.49970,-8.58665
81.05000,-13.50837,-8.59492
81.10001,-13.51650,-8.59707
81.15000,-13.52477,-8.60906
81.20001,-13.53343,-8.60569
81.25001,-13.54170,-8.62117
81.30000,-13.54997,-8.61920
81.35001,-13.55837,-8.63120
81.40000,-13.56663,-8.62944
81.45001,-13.57503,-8.64052
81.50001,-13.58343,-8.64058
81.55000,-13.59143,-8.65104
81.60001,-13.59997,-8.64748
81.65000,-13.60837,-8.66067
81.70001,-13.61637,-8.65820
81.75001,-13.62490,-8.66600
81.80000,-13.63330,-8.66859
81.85001,-13.64143,-8.67687
81.90000,-13.64970,-8.67499
81.95001,-13.65850,-8.68764
82.00001,-13.66663,-8.68976
82.05000,-13.67490,-8.69408
82.10001,-13.68357,-8.69960
82.15000,-13.69183,-8.70497
82.20001,-13.70010,-8.70901
82.25001,-13.70850,-8.71282
82.30000,-13.71677,-8.71635
82.35001,-13.72490,-8.72325
82.40000,-13.73330,-8.72437
82.45001,-13.74143,-8.73045
82.50001,-13.74983,-8.73281
82.55000,-13.75797,-8.73989
82.60001,-13.76623,-8.74266
82.65000,-13.77477,-8.74834
82.70001,-13.78330,-8.75432
82.75001,-13.79143,-8.76215
82.80000,-13.79983,-8.76138
82.85001,-13.80837,-8.77007
82.90000,-13.81663,-8.77418
82.95001,-13.82490,-8.79580
83.00001,-13.83357,-8.75021
83.05000,-13.84197,-8.80810
83.10001,-13.85010,-8.76763
83.15000,-13.85823,-8.80509
83.20001,-13.86677,-8.78133
83.25001,-13.87490,-8.81493
83.30000,-13.88290,-8.79186
83.35001,-13.89143,-8.82179
83.40000,-13.89970,-8.80410
83.45001,-13.90797,-8.83088
83.50001,-13.91650,-8.82005
83.55000,-13.92490,-8.84383
83.60001,-13.93330,-8.83203
83.65000,-13.94170,-8.85726
83.70001,-13.94997,-8.84502
83.75001,-13.95850,-8.86272
83.80000,-13.96677,-8.86315
83.85001,-13.97490,-8.86940
83.90000,-13.98330,-8.87277
83.95001,-13.99170,-8.88111
84.00001,-13.99983,-8.88457
84.05000,-14.00823,-8.88992
84.10001,-14.01677,-8.89725
84.15000,-14.02477,-8.90133
84.20001,-14.03303,-8.90693
84.25001,-14.04170,-8.90943
84.30000,-14.04997,-8.92145
84.35001,-14.05810,-8.92252
84.40000,-14.06663,-8.93204
84.45001,-14.07503,-8.93786
84.50001,-14.08330,-8.94481
84.55000,-14.09170,-8.94853
84.60001,-14.09997,-8.95532
84.65000,-14.10837,-8.96103
84.70001,-14.11677,-8.97014
84.75001,-14.12477,-8.97292
84.80000,-14.13343,-8.98187
84.85001,-14.14170,-8.98361
84.90000,-14.14970,-8.99238
84.95001,-14.15823,-8.99517
85.00001,-14.16663,-9.00392
85.05000,-14.17476,-9.01035
85.10001,-14.18317,-9.01272
85.15000,-14.19183,-9.02508
85.20001,-14.19997,-9.02835
85.25001,-14.20810,-9.03260
85.30000,-14.21676,-9.03708
85.35001,-14.22503,-9.05190
85.40000,-14.23317,-9.05356
85.45001,-14.24170,-9.05953
85.50001,-14.25010,-9.06767
85.55000,-14.25823,-9.07286
85.60001,-14.26663,-9.07829
85.65000,-14.27476,-9.08543
85.70001,-14.28330,-9.09060
85.75001,-14.29170,-9.10086
85.80000,-14.29970,-9.10550
85.85001,-14.30810,-9.11173
85.90000,-14.31663,-9.12048
85.95001,-14.32490,-9.13249
86.00001,-14.33317,-9.13413
86.05000,-14.34183,-9.14603
86.10001,-14.34997,-9.15330
86.15000,-14.35823,-9.15825
86.20001,-14.36676,-9.16658
86.25001,-14.37517,-9.17428
86.30000,-14.38330,-9.18372
86.35001,-14.39143,-9.18649
86.40000,-14.39996,-9.19635
86.45001,-14.40810,-9.20175
86.50001,-14.41636,-9.21197
86.55000,-14.42490,-9.21687
86.60001,-14.43317,-9.22669
86.65000,-14.44143,-9.23249
86.70001,-14.44983,-9.24552
86.75001,-14.45823,-9.24923
86.80000,-14.46650,-9.26028
86.85001,-14.47476,-9.26840
86.90000,-14.48303,-9.27418
86.95001,-14.49170,-9.28730
87.00001,-14.50010,-9.29446
87.05000,-14.50823,-9.30332
87.10001,-14.51663,-9.30438
87.15000,-14.52503,-9.31526
87.20001,-14.53303,-9.31587
87.25001,-14.54130,-9.32572
87.30000,-14.54996,-9.33160
87.35001,-14.55810,-9.34428
87.40000,-14.56636,-9.34665
87.45001,-14.57490,-9.36035
87.50001,-14.58330,-9.36733
87.55000,-14.59156,-9.37675
87.60001,-14.60010,-9.38545
87.65000,-14.60836,-9.38911
87.70001,-14.61676,-9.40614
87.75001,-14.62516,-9.40669
87.80000,-14.63343,-9.42109
87.85001,-14.64183,-9.42546
87.90000,-14.65010,-9.43860
87.95001,-14.65823,-9.43760
88.00001,-14.66676,-9.45675
88.05000,-14.67503,-9.45570
88.10001,-14.68303,-9.47859
88.15000,-14.69156,-9.46699
88.20001,-14.70010,-9.49088
88.25001,-14.70810,-9.48942
88.30000,-14.71650,-9.50450
88.35001,-14.72503,-9.50469
88.40000,-14.73330,-9.52412
88.45001,-14.74143,-9.52116
88.50001,-14.75010,-9.53874
88.55000,-14.75850,-9.54218
88.60001,-14.76663,-9.55509
88.65000,-14.77503,-9.55639
88.70001,-14.78343,-9.57166
88.75001,-14.79156,-9.57094
88.80000,-14.79983,-9.58673
88.85001,-14.80810,-9.58635
88.90000,-14.81650,-9.59999
88.95001,-14.82503,-9.60676
89.00001,-14.83316,-9.61749
89.05000,-14.84156,-9.62032
89.10001,-14.84996,-9.63420
89.15000,-14.85823,-9.63874
89.20001,-14.86650,-9.64875
89.25001,-14.87516,-9.65433
89.30000,-14.88343,-9.66830
89.35001,-14.89156,-9.67272
89.40000,-14.90010,-9.68199
89.45001,-14.90850,-9.69178
89.50001,-14.91663,-9.69654
89.55000,-14.92490,-9.70437
89.60001,-14.93343,-9.71070
89.65000,-14.94156,-9.72289
89.70001,-14.94983,-9.72370
89.75001,-14.95823,-9.73864
89.80000,-14.96650,-9.73791
89.85001,-14.97463,-9.74967
89.90000,-14.98303,-9.75965
89.95001,-14.99156,-9.76566
90.00001,-14.99996,-9.77670
90.05000,-15.00823,-9.78747
90.10001,-15.01663,-9.79240
90.15000,-15.02516,-9.80182
90.20001,-15.03343,-9.81305
90.25001,-15.04156,-9.81869
90.30000,-15.05010,-9.82332
90.31400,-15.05250,-9.82188
