Time,Extension,Load
(sec),(mm),(N)
0.00000,0.00000,0.00008
0.05000,-0.00107,0.00182
0.10000,-0.00573,-0.00463
0.15000,-0.01467,-0.00957
0.20000,-0.02560,-0.02740
0.25000,-0.03573,-0.03335
0.30000,-0.04533,-0.04949
0.35000,-0.05520,-0.05692
0.40000,-0.06413,-0.06559
0.45000,-0.07320,-0.07996
0.50000,-0.08213,-0.08083
0.55000,-0.09067,-0.09722
0.60000,-0.09907,-0.09799
0.65000,-0.10773,-0.11220
0.70000,-0.11613,-0.11613
0.75000,-0.12453,-0.12414
0.80000,-0.13293,-0.13116
0.85000,-0.14120,-0.14158
0.90000,-0.14987,-0.14405
0.95000,-0.15813,-0.15974
1.00000,-0.16640,-0.15806
1.05000,-0.17493,-0.17580
1.10000,-0.18333,-0.17288
1.15000,-0.19147,-0.19048
1.20000,-0.20000,-0.19201
1.25000,-0.20840,-0.19927
1.30000,-0.21640,-0.21195
1.35000,-0.22480,-0.21341
1.40000,-0.23333,-0.22461
1.45000,-0.24147,-0.23093
1.50000,-0.24973,-0.23721
1.55000,-0.25813,-0.24726
1.60000,-0.26640,-0.25305
1.65000,-0.27467,-0.26168
1.70000,-0.28320,-0.26877
1.75000,-0.29147,-0.27491
1.80000,-0.29987,-0.28667
1.85000,-0.30827,-0.29160
1.90000,-0.31640,-0.29856
1.95000,-0.32493,-0.30971
2.00000,-0.33333,-0.31141
2.05000,-0.34147,-0.32752
2.10000,-0.34987,-0.32543
2.15000,-0.35840,-0.34340
2.20000,-0.36640,-0.34337
2.25000,-0.37467,-0.35694
2.30000,-0.38320,-0.36248
2.35000,-0.39147,-0.37131
2.40000,-0.39960,-0.37896
2.45000,-0.40827,-0.38739
2.50000,-0.41667,-0.39476
2.55000,-0.42480,-0.40637
2.60000,-0.43320,-0.41028
2.65000,-0.44173,-0.42262
2.70000,-0.44987,-0.42765
2.75000,-0.45827,-0.43771
2.80000,-0.46653,-0.44767
2.85000,-0.47493,-0.45124
2.90000,-0.48320,-0.46631
2.95000,-0.49160,-0.46992
3.00000,-0.50000,-0.48307
3.05000,-0.50827,-0.48874
3.10000,-0.51640,-0.49878
3.15000,-0.52467,-0.50910
3.20000,-0.53320,-0.51870
3.25000,-0.54147,-0.53088
3.30000,-0.54973,-0.53784
3.35000,-0.55840,-0.55049
3.40000,-0.56680,-0.56274
3.45000,-0.57480,-0.57254
3.50000,-0.58333,-0.58201
3.55000,-0.59187,-0.59729
3.60000,-0.60000,-0.60467
3.65000,-0.60827,-0.61975
3.70000,-0.61680,-0.62645
3.75000,-0.62507,-0.64205
3.80000,-0.63320,-0.65016
3.85000,-0.64160,-0.66436
3.90000,-0.65000,-0.67463
3.95000,-0.65827,-0.68745
4.00000,-0.66653,-0.69603
4.05000,-0.67480,-0.71077
4.10000,-0.68333,-0.71939
4.15000,-0.69160,-0.73651
4.20000,-0.69973,-0.74076
4.25000,-0.70826,-0.75862
4.30000,-0.71666,-0.76486
4.35000,-0.72480,-0.78385
4.40000,-0.73320,-0.78884
4.45000,-0.74186,-0.80602
4.50000,-0.74986,-0.81287
4.55000,-0.75813,-0.83061
4.60000,-0.76680,-0.83572
4.65000,-0.77480,-0.85493
4.70000,-0.78306,-0.85889
4.75000,-0.79146,-0.87790
4.80000,-0.79973,-0.88484
4.85000,-0.80800,-0.89654
4.90000,-0.81640,-0.91461
4.95000,-0.82480,-0.91940
5.00000,-0.83333,-0.93922
5.05000,-0.84160,-0.94504
5.10000,-0.84986,-0.96226
5.15000,-0.85840,-0.96856
5.20000,-0.86666,-0.98921
5.25000,-0.87480,-0.99044
5.30000,-0.88320,-1.01433
5.35000,-0.89173,-1.01692
5.40000,-0.89973,-1.03532
5.45000,-0.90800,-1.04192
5.50000,-0.91666,-1.06002
5.55000,-0.92466,-1.06949
5.60000,-0.93293,-1.07947
5.65000,-0.94146,-1.09596
5.70000,-0.94986,-1.10231
5.75000,-0.95800,-1.12312
5.80000,-0.96653,-1.12419
5.85000,-0.97506,-1.14956
5.90000,-0.98320,-1.14968
5.95000,-0.99160,-1.17296
6.00000,-1.00000,-1.17573
6.05000,-1.00840,-1.19521
6.10000,-1.01680,-1.20148
6.15000,-1.02493,-1.22129
6.20000,-1.03320,-1.22190
6.25000,-1.04146,-1.24806
6.30000,-1.04960,-1.24704
6.35000,-1.05800,-1.27031
6.40000,-1.06666,-1.27450
6.45000,-1.07493,-1.29476
6.50000,-1.08306,-1.30022
6.55000,-1.09173,-1.31801
6.60000,-1.10000,-1.32502
6.65000,-1.10813,-1.34384
6.70000,-1.11666,-1.34883
6.75000,-1.12520,-1.36849
6.80000,-1.13333,-1.37403
6.85000,-1.14160,-1.39271
6.90000,-1.15026,-1.39950
6.95000,-1.15840,-1.41766
7.00000,-1.16653,-1.42363
7.05000,-1.17493,-1.44141
7.10000,-1.18333,-1.44911
7.15000,-1.19160,-1.46592
7.20000,-1.19986,-1.47353
7.25000,-1.20813,-1.49047
7.30000,-1.21666,-1.49780
7.35000,-1.22493,-1.51543
7.40000,-1.23320,-1.52338
7.45000,-1.24173,-1.53883
7.50000,-1.25013,-1.54960
7.55000,-1.25826,-1.56332
7.60000,-1.26666,-1.57318
7.65000,-1.27520,-1.58728
7.70000,-1.28320,-1.59937
7.75000,-1.29146,-1.61056
7.80000,-1.30000,-1.62259
7.85000,-1.30813,-1.63454
7.90000,-1.31640,-1.64722
7.95000,-1.32480,-1.66025
8.00000,-1.33306,-1.67489
8.05000,-1.34133,-1.68183
8.10000,-1.34973,-1.68716
8.15000,-1.35813,-1.69289
8.20000,-1.36653,-1.69506
8.25000,-1.37493,-1.69527
8.30000,-1.38306,-1.70097
8.35000,-1.39173,-1.71139
8.40000,-1.40013,-1.71999
8.45000,-1.40813,-1.72896
8.50000,-1.41653,-1.74127
8.55000,-1.42506,-1.75746
8.60000,-1.43306,-1.76763
8.65000,-1.44133,-1.77959
8.70000,-1.45000,-1.79155
8.75000,-1.45813,-1.80359
8.80000,-1.46626,-1.81405
8.85000,-1.47480,-1.82767
8.90000,-1.48320,-1.84218
8.95000,-1.49160,-1.85290
9.00000,-1.50000,-1.86588
9.05000,-1.50853,-1.87807
9.10000,-1.51666,-1.88972
9.15000,-1.52506,-1.90037
9.20000,-1.53333,-1.91084
9.25000,-1.54173,-1.92076
9.30000,-1.55000,-1.93229
9.35000,-1.55813,-1.94365
9.40000,-1.56666,-1.95782
9.45000,-1.57506,-1.96909
9.50000,-1.58306,-1.98351
9.55000,-1.59146,-1.99414
9.60000,-1.60000,-2.00781
9.65000,-1.60813,-2.02029
9.70000,-1.61640,-2.02990
9.75000,-1.62493,-2.04473
9.80000,-1.63333,-2.05477
9.85000,-1.64146,-2.06855
9.90000,-1.65000,-2.07804
9.95000,-1.65853,-2.09120
10.00000,-1.66653,-2.10026
10.05000,-1.67480,-2.11300
10.10000,-1.68320,-2.12224
10.15000,-1.69146,-2.13508
10.20000,-1.69973,-2.14328
10.25000,-1.70800,-2.15634
10.30000,-1.71653,-2.16527
10.35000,-1.72493,-2.17831
10.40000,-1.73320,-2.18824
10.45000,-1.74146,-2.19935
10.50000,-1.75000,-2.20972
10.55000,-1.75840,-2.22098
10.60000,-1.76653,-2.22740
10.65000,-1.77506,-2.22517
10.70000,-1.78346,-2.22063
10.75000,-1.79160,-2.22640
10.80000,-1.80000,-2.22032
10.85000,-1.80853,-2.22258
10.90000,-1.81666,-2.23062
10.95000,-1.82480,-2.23139
11.00000,-1.83333,-2.23586
11.05000,-1.84160,-2.24652
11.10000,-1.84973,-2.25889
11.15000,-1.85813,-2.27371
11.20000,-1.86653,-2.28297
11.25000,-1.87466,-2.29908
11.30000,-1.88320,-2.30782
11.35000,-1.89146,-2.32367
11.40000,-1.89986,-2.33068
11.45000,-1.90826,-2.34639
11.50000,-1.91653,-2.35412
11.55000,-1.92506,-2.36672
11.60000,-1.93333,-2.37574
11.65000,-1.94146,-2.38758
11.70000,-1.94973,-2.39527
11.75000,-1.95840,-2.40759
11.80000,-1.96640,-2.41466
11.85000,-1.97466,-2.42687
11.90000,-1.98333,-2.43464
11.95000,-1.99146,-2.44715
12.00000,-1.99960,-2.45436
12.05000,-2.00813,-2.46585
12.10000,-2.01653,-2.47619
12.15000,-2.02480,-2.48455
12.20000,-2.03319,-2.49617
12.25000,-2.04173,-2.50443
12.30000,-2.05000,-2.51374
12.35000,-2.05826,-2.52286
12.40000,-2.06666,-2.53238
12.45000,-2.07506,-2.53972
12.50000,-2.08333,-2.54884
12.55000,-2.09146,-2.55401
12.60000,-2.09986,-2.56411
12.65000,-2.10826,-2.57291
12.70000,-2.11639,-2.58438
12.75000,-2.12479,-2.59242
12.80000,-2.13333,-2.60393
12.85000,-2.14146,-2.61178
12.90000,-2.14973,-2.62185
12.95000,-2.15826,-2.63088
13.00000,-2.16679,-2.64295
13.05000,-2.17493,-2.64947
13.10000,-2.18333,-2.66032
13.15000,-2.19186,-2.66779
13.20000,-2.19999,-2.67905
13.25000,-2.20839,-2.68415
13.30000,-2.21679,-2.69619
13.35000,-2.22493,-2.70234
13.40000,-2.23319,-2.71171
13.45000,-2.24159,-2.71843
13.50000,-2.24999,-2.72923
13.55000,-2.25826,-2.73513
13.60000,-2.26653,-2.74587
13.65000,-2.27479,-2.75228
13.70000,-2.28333,-2.76222
13.75000,-2.29159,-2.76891
13.80000,-2.29986,-2.77870
13.85000,-2.30839,-2.78641
13.90000,-2.31679,-2.79484
13.95000,-2.32479,-2.80172
14.00000,-2.33319,-2.80912
14.05000,-2.34173,-2.81724
14.10000,-2.34973,-2.82399
14.15000,-2.35799,-2.83212
14.20000,-2.36653,-2.84092
14.25000,-2.37466,-2.84838
14.30000,-2.38293,-2.85618
14.35000,-2.39133,-2.86552
14.40000,-2.39973,-2.87338
14.45000,-2.40813,-2.88425
14.50000,-2.41653,-2.88954
14.55000,-2.42479,-2.90067
14.60000,-2.43319,-2.90676
14.65000,-2.44173,-2.91796
14.70000,-2.44986,-2.92157
14.75000,-2.45839,-2.93409
14.80000,-2.46679,-2.93937
14.85000,-2.47493,-2.94811
14.90000,-2.48333,-2.95470
14.95000,-2.49173,-2.96360
15.00000,-2.49973,-2.96883
15.05000,-2.50799,-2.97807
15.10000,-2.51653,-2.98209
15.15000,-2.52466,-2.99323
15.20000,-2.53293,-2.99570
15.25000,-2.54146,-3.00637
15.30000,-2.54999,-3.01067
15.35000,-2.55813,-3.02147
15.40000,-2.56653,-3.02550
15.45000,-2.57493,-3.03533
15.50000,-2.58333,-3.04017
15.55000,-2.59159,-3.04787
15.60000,-2.59986,-3.05335
15.65000,-2.60839,-3.06185
15.70000,-2.61666,-3.06537
15.75000,-2.62479,-3.07698
15.80000,-2.63333,-3.07880
15.85000,-2.64173,-3.08984
15.90000,-2.64973,-3.09257
15.95000,-2.65813,-3.10067
16.00000,-2.66666,-3.10763
16.05000,-2.67479,-3.11425
16.10000,-2.68306,-3.12096
16.15000,-2.69173,-3.12788
16.20000,-2.70013,-3.13409
16.25000,-2.70826,-3.14071
16.30000,-2.71666,-3.14599
16.35000,-2.72519,-3.15466
16.40000,-2.73333,-3.15998
16.45000,-2.74159,-3.16539
16.50000,-2.74999,-3.17174
16.55000,-2.75839,-3.17823
16.60000,-2.76653,-3.18359
16.65000,-2.77493,-3.18942
16.70000,-2.78333,-3.19592
16.75000,-2.79159,-3.19974
16.80000,-2.79973,-3.20651
16.85000,-2.80813,-3.21024
16.90000,-2.81666,-3.21827
16.95000,-2.82493,-3.22340
17.00000,-2.83319,-3.22942
17.05000,-2.84173,-3.23572
17.10000,-2.85013,-3.24134
17.15000,-2.85813,-3.24739
17.20000,-2.86666,-3.25115
17.25000,-2.87519,-3.25769
17.30000,-2.88319,-3.26208
17.35000,-2.89146,-3.26588
17.40000,-2.89999,-3.27390
17.45000,-2.90813,-3.27688
17.50000,-2.91639,-3.28409
17.55000,-2.92479,-3.28769
17.60000,-2.93306,-3.29510
17.65000,-2.94133,-3.29872
17.70000,-2.94973,-3.30564
17.75000,-2.95799,-3.31071
17.80000,-2.96653,-3.31501
17.85000,-2.97493,-3.32144
17.90000,-2.98306,-3.32594
17.95000,-2.99173,-3.33101
18.00000,-2.99999,-3.33671
18.05000,-3.00813,-3.34165
18.10000,-3.01653,-3.34542
18.15000,-3.02506,-3.35210
18.20000,-3.03306,-3.35485
18.25000,-3.04146,-3.36057
18.30000,-3.04999,-3.36392
18.35000,-3.05813,-3.37055
18.40000,-3.06626,-3.37407
18.45000,-3.07493,-3.37859
18.50000,-3.08333,-3.38455
18.55000,-3.09146,-3.38785
18.60000,-3.09986,-3.39214
18.65000,-3.10839,-3.39775
18.70000,-3.11653,-3.40195
18.75000,-3.12493,-3.40670
18.80000,-3.13333,-3.41086
18.85000,-3.14173,-3.41520
18.90000,-3.14999,-3.41914
18.95000,-3.15813,-3.42397
19.00000,-3.16653,-3.42696
19.05000,-3.17506,-3.43069
19.10000,-3.18306,-3.43425
19.15000,-3.19146,-3.43718
19.20000,-3.19999,-3.44237
19.25000,-3.20813,-3.44565
19.30000,-3.21639,-3.44820
19.35000,-3.22493,-3.45260
19.40000,-3.23346,-3.45598
19.45000,-3.24159,-3.46043
19.50000,-3.24999,-3.46398
19.55000,-3.25853,-3.46856
19.60000,-3.26666,-3.47185
19.65000,-3.27493,-3.47691
19.70000,-3.28346,-3.47961
19.75000,-3.29173,-3.48331
19.80000,-3.29986,-3.48743
19.85000,-3.30813,-3.49025
19.90000,-3.31653,-3.49425
19.95000,-3.32493,-3.49727
20.00000,-3.33306,-3.50183
20.05000,-3.34133,-3.50238
20.10000,-3.34986,-3.50722
20.15000,-3.35813,-3.51166
20.20000,-3.36639,-3.51488
20.25000,-3.37506,-3.51857
20.30000,-3.38333,-3.52214
20.35000,-3.39146,-3.52404
20.40000,-3.39986,-3.52807
20.45000,-3.40839,-3.52965
20.50000,-3.41652,-3.53345
20.55000,-3.42493,-3.53479
20.60000,-3.43332,-3.53855
20.65000,-3.44146,-3.54028
20.70000,-3.44972,-3.54287
20.75000,-3.45812,-3.54425
20.80000,-3.46639,-3.54721
20.85000,-3.47479,-3.54789
20.90000,-3.48306,-3.55033
20.95000,-3.49146,-3.55048
21.00000,-3.49986,-3.55341
21.05000,-3.50826,-3.55380
21.10000,-3.51639,-3.55559
21.15000,-3.52492,-3.55568
21.20000,-3.53332,-3.55971
21.25000,-3.54146,-3.55965
21.30000,-3.54986,-3.56388
21.35000,-3.55839,-3.56483
21.40000,-3.56652,-3.56864
21.45000,-3.57479,-3.56849
21.50000,-3.58332,-3.57295
21.55000,-3.59132,-3.57360
21.60000,-3.59959,-3.57631
21.65000,-3.60812,-3.57700
21.70000,-3.61652,-3.58178
21.75000,-3.62466,-3.58224
21.80000,-3.63319,-3.58580
21.85000,-3.64159,-3.58657
21.90000,-3.64999,-3.59049
21.95000,-3.65826,-3.59147
22.00000,-3.66652,-3.59467
22.05000,-3.67506,-3.59513
22.10000,-3.68332,-3.59827
22.15000,-3.69146,-3.59853
22.20000,-3.69999,-3.60052
22.25000,-3.70839,-3.60192
22.30000,-3.71652,-3.60465
22.35000,-3.72479,-3.60358
22.40000,-3.73332,-3.60545
22.45000,-3.74159,-3.60546
22.50000,-3.74986,-3.60753
22.55000,-3.75839,-3.60749
22.60000,-3.76666,-3.60956
22.65000,-3.77492,-3.60914
22.70000,-3.78332,-3.61077
22.75000,-3.79186,-3.61230
22.80000,-3.79999,-3.61213
22.85000,-3.80839,-3.61263
22.90000,-3.81679,-3.61367
22.95000,-3.82506,-3.61375
23.00000,-3.83319,-3.61375
23.05000,-3.84159,-3.61487
23.10000,-3.84986,-3.61400
23.15000,-3.85812,-3.61573
23.20000,-3.86639,-3.61458
23.25000,-3.87466,-3.61517
23.30000,-3.88319,-3.61494
23.35000,-3.89159,-3.61702
23.40000,-3.89972,-3.61440
23.45000,-3.90826,-3.61615
23.50000,-3.91666,-3.61512
23.55000,-3.92479,-3.61633
23.60000,-3.93319,-3.61436
23.65000,-3.94172,-3.61587
23.70000,-3.94986,-3.61453
23.75000,-3.95812,-3.61467
23.80000,-3.96666,-3.61383
23.85000,-3.97492,-3.61340
23.90000,-3.98319,-3.61326
23.95000,-3.99159,-3.61267
24.00000,-3.99972,-3.61155
24.05000,-4.00799,-3.61065
24.10000,-4.01639,-3.61003
24.15000,-4.02492,-3.60904
24.20000,-4.03346,-3.60889
24.25000,-4.04172,-3.60772
24.30000,-4.04986,-3.60801
24.35000,-4.05839,-3.60671
24.40000,-4.06666,-3.60805
24.45000,-4.07479,-3.60631
24.50000,-4.08319,-3.60749
24.55000,-4.09172,-3.60772
24.60000,-4.09972,-3.60762
24.65000,-4.10799,-3.60663
24.70000,-4.11666,-3.60796
24.75000,-4.12466,-3.60849
24.80000,-4.13292,-3.60870
24.85000,-4.14146,-3.60970
24.90000,-4.14986,-3.61142
24.95000,-4.15799,-3.61090
25.00000,-4.16639,-3.61274
25.05000,-4.17506,-3.61339
25.10000,-4.18332,-3.61610
25.15000,-4.19172,-3.61502
25.20000,-4.19999,-3.61712
25.25000,-4.20826,-3.61720
25.30000,-4.21666,-3.61815
25.35000,-4.22492,-3.61868
25.40000,-4.23332,-3.61978
25.45000,-4.24159,-3.62093
25.50000,-4.24972,-3.62071
25.55000,-4.25812,-3.62253
25.60000,-4.26652,-3.61969
25.65000,-4.27466,-3.62674
25.70000,-4.28306,-3.61983
25.75000,-4.29159,-3.62795
25.80000,-4.29999,-3.62464
25.85000,-4.30812,-3.62895
25.90000,-4.31666,-3.62464
25.95000,-4.32519,-3.63107
26.00000,-4.33332,-3.62693
26.05000,-4.34159,-3.63103
26.10000,-4.34999,-3.62770
26.15000,-4.35826,-3.63155
26.20000,-4.36652,-3.62728
26.25000,-4.37492,-3.63358
26.30000,-4.38332,-3.62748
26.35000,-4.39159,-3.63441
26.40000,-4.39986,-3.62999
26.45000,-4.40826,-3.63321
26.50000,-4.41666,-3.63130
26.55000,-4.42492,-3.63529
26.60000,-4.43319,-3.63228
26.65000,-4.44172,-3.63456
26.70000,-4.45012,-3.63352
26.75000,-4.45812,-3.63529
26.80000,-4.46652,-3.63155
26.85000,-4.47519,-3.63688
26.90000,-4.48319,-3.63228
26.95000,-4.49146,-3.63638
27.00000,-4.49999,-3.63119
27.05000,-4.50812,-3.63676
27.10000,-4.51639,-3.63268
27.15000,-4.52479,-3.63568
27.20000,-4.53306,-3.63437
27.25000,-4.54132,-3.63405
27.30000,-4.54972,-3.63571
27.35000,-4.55812,-3.63553
27.40000,-4.56666,-3.63557
27.45000,-4.57492,-3.63687
27.50000,-4.58306,-3.63515
27.55000,-4.59172,-3.63522
27.60000,-4.59999,-3.63676
27.65000,-4.60799,-3.63545
27.70000,-4.61652,-3.63570
27.75000,-4.62506,-3.63538
27.80000,-4.63306,-3.63816
27.85000,-4.64146,-3.63454
27.90000,-4.65012,-3.63776
27.95000,-4.65812,-3.63776
28.00000,-4.66639,-3.63864
28.05000,-4.67479,-3.63809
28.10000,-4.68319,-3.63993
28.15000,-4.69146,-3.64007
28.20000,-4.69999,-3.64109
28.25000,-4.70839,-3.64135
28.30000,-4.71666,-3.64316
28.35000,-4.72492,-3.64383
28.40000,-4.73319,-3.64542
28.45000,-4.74159,-3.64530
28.50000,-4.74999,-3.64732
28.55000,-4.75826,-3.64956
28.60000,-4.76666,-3.64867
28.65000,-4.77506,-3.65223
28.70000,-4.78306,-3.65115
28.75000,-4.79145,-3.65394
28.80000,-4.79985,-3.65514
28.85000,-4.80812,-3.65761
28.90000,-4.81639,-3.65903
28.95000,-4.82506,-3.66022
29.00000,-4.83332,-3.66455
29.05000,-4.84145,-3.66431
29.10000,-4.84999,-3.66660
29.15000,-4.85839,-3.66940
29.20000,-4.86652,-3.67094
29.25000,-4.87492,-3.67111
29.30000,-4.88332,-3.67506
29.35000,-4.89159,-3.67509
29.40000,-4.89985,-3.67902
29.45000,-4.90812,-3.67804
29.50000,-4.91652,-3.68268
29.55000,-4.92479,-3.68264
29.60000,-4.93305,-3.68486
29.65000,-4.94132,-3.68629
29.70000,-4.94999,-3.68872
29.75000,-4.95825,-3.69188
29.80000,-4.96652,-3.69144
29.85000,-4.97505,-3.69493
29.90000,-4.98345,-3.69658
29.95000,-4.99159,-3.69872
30.00000,-4.99999,-3.69812
30.05000,-5.00852,-3.70301
30.10000,-5.01652,-3.70176
30.15000,-5.02479,-3.70553
30.20000,-5.03332,-3.70465
30.25000,-5.04159,-3.71066
30.30000,-5.04985,-3.70846
30.35000,-5.05825,-3.71343
30.40000,-5.06652,-3.71169
30.45000,-5.07479,-3.71706
30.50000,-5.08319,-3.71654
30.55000,-5.09145,-3.72039
30.60000,-5.09985,-3.72078
30.65000,-5.10825,-3.72580
30.70000,-5.11652,-3.72592
30.75000,-5.12505,-3.72773
30.80000,-5.13332,-3.73070
30.85000,-5.14145,-3.73364
30.90000,-5.14999,-3.73430
30.95000,-5.15852,-3.73631
31.00000,-5.16639,-3.74083
31.05000,-5.17479,-3.74058
31.10000,-5.18332,-3.74308
31.15000,-5.19145,-3.74788
31.20000,-5.19959,-3.74799
31.25000,-5.20812,-3.75243
31.30000,-5.21639,-3.75354
31.35000,-5.22465,-3.75910
31.40000,-5.23305,-3.75833
31.45000,-5.24159,-3.76562
31.50000,-5.24999,-3.76574
31.55000,-5.25825,-3.77245
31.60000,-5.26652,-3.76904
31.65000,-5.27492,-3.77972
31.70000,-5.28332,-3.77425
31.75000,-5.29145,-3.78815
31.80000,-5.29999,-3.77524
31.85000,-5.30839,-3.79483
31.90000,-5.31652,-3.78310
31.95000,-5.32479,-3.80100
32.00000,-5.33332,-3.78151
32.05000,-5.34145,-3.81302
32.10000,-5.34972,-3.78593
32.15000,-5.35839,-3.81635
32.20000,-5.36665,-3.79436
32.25000,-5.37479,-3.82109
32.30000,-5.38332,-3.79964
32.35000,-5.39172,-3.82635
32.40000,-5.39985,-3.80844
32.45000,-5.40825,-3.82879
32.50000,-5.41679,-3.81573
32.55000,-5.42505,-3.83416
32.60000,-5.43319,-3.82202
32.65000,-5.44172,-3.83661
32.70000,-5.44999,-3.82830
32.75000,-5.45825,-3.84332
32.80000,-5.46652,-3.83220
32.85000,-5.47479,-3.84418
32.90000,-5.48332,-3.84185
32.95000,-5.49172,-3.84757
33.00000,-5.49985,-3.84377
33.05000,-5.50839,-3.85187
33.10000,-5.51679,-3.85191
33.15000,-5.52492,-3.85555
33.20000,-5.53332,-3.85321
33.25000,-5.54185,-3.86347
33.30000,-5.54985,-3.86158
33.35000,-5.55812,-3.86383
33.40000,-5.56665,-3.86822
33.45000,-5.57479,-3.86978
33.50000,-5.58305,-3.87332
33.55000,-5.59145,-3.87374
33.60000,-5.59972,-3.87691
33.65000,-5.60785,-3.88150
33.70000,-5.61639,-3.88077
33.75000,-5.62479,-3.88565
33.80000,-5.63332,-3.88661
33.85000,-5.64172,-3.89285
33.90000,-5.64985,-3.89322
33.95000,-5.65839,-3.89223
34.00000,-5.66665,-3.90255
34.05000,-5.67479,-3.89629
34.10000,-5.68319,-3.90499
34.15000,-5.69172,-3.90212
34.20000,-5.69972,-3.90996
34.25000,-5.70799,-3.90745
34.30000,-5.71665,-3.91437
34.35000,-5.72465,-3.91173
34.40000,-5.73292,-3.92045
34.45000,-5.74145,-3.91522
34.50000,-5.74985,-3.92747
34.55000,-5.75812,-3.92053
34.60000,-5.76665,-3.93262
34.65000,-5.77505,-3.92752
34.70000,-5.78332,-3.93867
34.75000,-5.79159,-3.92840
34.80000,-5.79999,-3.94725
34.85000,-5.80839,-3.93405
34.90000,-5.81665,-3.95004
34.95000,-5.82492,-3.94077
35.00000,-5.83332,-3.95547
35.05000,-5.84159,-3.94108
35.10000,-5.84985,-3.96158
35.15000,-5.85812,-3.95012
35.20000,-5.86652,-3.95765
35.25000,-5.87479,-3.96046
35.30000,-5.88305,-3.96297
35.35000,-5.89172,-3.96482
35.40000,-5.89999,-3.96599
35.45000,-5.90825,-3.97230
35.50000,-5.91665,-3.97326
35.55000,-5.92519,-3.97093
35.60000,-5.93332,-3.98033
35.65000,-5.94172,-3.98049
35.70000,-5.95012,-3.97927
35.75000,-5.95825,-3.98630
35.80000,-5.96665,-3.98595
35.85000,-5.97492,-3.99044
35.90000,-5.98332,-3.98913
35.95000,-5.99159,-3.99398
36.00000,-5.99985,-3.99815
36.05000,-6.00812,-3.99158
36.10000,-6.01652,-4.00394
36.15000,-6.02492,-3.99951
36.20000,-6.03319,-4.00519
36.25000,-6.04172,-4.00479
36.30000,-6.05012,-4.00847
36.35000,-6.05825,-4.00920
36.40000,-6.06665,-4.01279
36.45000,-6.07519,-4.00980
36.50000,-6.08319,-4.01940
36.55000,-6.09145,-4.01131
36.60000,-6.10012,-4.02258
36.65000,-6.10812,-4.01758
36.70000,-6.11639,-4.02681
36.75000,-6.12479,-4.01692
36.80000,-6.13305,-4.03041
36.85000,-6.14132,-4.02796
36.90000,-6.14972,-4.02874
36.95000,-6.15812,-4.03106
37.00000,-6.16665,-4.03681
37.05000,-6.17492,-4.03293
37.10000,-6.18319,-4.04203
37.15000,-6.19172,-4.03303
37.20000,-6.20012,-4.04933
37.25000,-6.20812,-4.03677
37.30000,-6.21665,-4.04700
37.35000,-6.22519,-4.04598
37.40000,-6.23305,-4.04912
37.45000,-6.24132,-4.04675
37.50000,-6.24998,-4.05182
37.55000,-6.25798,-4.05272
37.60000,-6.26625,-4.05323
37.65000,-6.27478,-4.05508
37.70000,-6.28318,-4.05815
37.75000,-6.29145,-4.05950
37.80000,-6.29985,-4.06221
37.85000,-6.30838,-4.06453
37.90000,-6.31665,-4.06537
37.95000,-6.32492,-4.06838
38.00000,-6.33332,-4.06790
38.05000,-6.34158,-4.07191
38.10000,-6.34985,-4.07184
38.15000,-6.35812,-4.07500
38.20000,-6.36665,-4.07758
38.25000,-6.37505,-4.08115
38.30000,-6.38318,-4.07809
38.35000,-6.39132,-4.08881
38.40000,-6.39985,-4.08334
38.45000,-6.40812,-4.09470
38.50000,-6.41638,-4.08540
38.55000,-6.42505,-4.10051
38.60000,-6.43345,-4.09334
38.65000,-6.44158,-4.10646
38.70000,-6.44998,-4.09606
38.75000,-6.45852,-4.11445
38.80000,-6.46665,-4.09793
38.85000,-6.47505,-4.11805
38.90000,-6.48345,-4.10754
38.95000,-6.49158,-4.11977
39.00000,-6.49985,-4.11202
39.05000,-6.50825,-4.12558
39.10000,-6.51665,-4.11453
39.15000,-6.52492,-4.12953
39.20000,-6.53318,-4.12077
39.25000,-6.54145,-4.13068
39.30000,-6.55012,-4.12718
39.35000,-6.55825,-4.13590
39.40000,-6.56652,-4.13239
39.45000,-6.57505,-4.13814
39.50000,-6.58332,-4.14043
39.55000,-6.59145,-4.13975
39.60000,-6.59985,-4.14780
39.65000,-6.60838,-4.14242
39.70000,-6.61638,-4.15257
39.75000,-6.62478,-4.14646
39.80000,-6.63332,-4.15603
39.85000,-6.64145,-4.15024
39.90000,-6.64972,-4.15969
39.95000,-6.65812,-4.15550
40.00000,-6.66638,-4.16487
40.05000,-6.67478,-4.15937
40.10000,-6.68318,-4.17038
40.15000,-6.69145,-4.16506
40.20000,-6.69985,-4.17428
40.25000,-6.70825,-4.17022
40.30000,-6.71638,-4.17884
40.35000,-6.72492,-4.17365
40.40000,-6.73332,-4.18179
40.45000,-6.74145,-4.18085
40.50000,-6.74985,-4.18428
40.55000,-6.75838,-4.18181
40.60000,-6.76638,-4.19065
40.65000,-6.77465,-4.18514
40.70000,-6.78332,-4.19143
40.75000,-6.79145,-4.18842
40.80000,-6.79958,-4.19673
40.85000,-6.80812,-4.19036
40.90000,-6.81652,-4.19938
40.95000,-6.82478,-4.19548
41.00000,-6.83332,-4.20429
41.05000,-6.84172,-4.19711
41.10000,-6.84998,-4.20901
41.15000,-6.85838,-4.20475
41.20000,-6.86665,-4.21229
41.25000,-6.87505,-4.20623
41.30000,-6.88332,-4.21844
41.35000,-6.89158,-4.21334
41.40000,-6.89998,-4.22022
41.45000,-6.90838,-4.21689
41.50000,-6.91638,-4.22667
41.55000,-6.92465,-4.21942
41.60000,-6.93318,-4.23146
41.65000,-6.94145,-4.22537
41.70000,-6.94972,-4.23381
41.75000,-6.95838,-4.23256
41.80000,-6.96678,-4.23953
41.85000,-6.97492,-4.23790
41.90000,-6.98332,-4.24294
41.95000,-6.99185,-4.24607
42.00000,-6.99985,-4.24293
42.05000,-7.00825,-4.25236
42.10000,-7.01665,-4.24882
42.15000,-7.02505,-4.25366
42.20000,-7.03318,-4.25523
42.25000,-7.04158,-4.25751
42.30000,-7.04998,-4.25671
42.35000,-7.05825,-4.26177
42.40000,-7.06652,-4.25900
42.45000,-7.07478,-4.26672
42.50000,-7.08332,-4.26417
42.55000,-7.09158,-4.27117
42.60000,-7.09985,-4.27166
42.65000,-7.10838,-4.27328
42.70000,-7.11665,-4.27898
42.75000,-7.12478,-4.27824
42.80000,-7.13318,-4.28268
42.85000,-7.14185,-4.28323
42.90000,-7.14998,-4.28948
42.95000,-7.15825,-4.28743
43.00000,-7.16665,-4.29435
43.05000,-7.17492,-4.29146
43.10000,-7.18305,-4.30062
43.15000,-7.19145,-4.29422
43.20000,-7.19972,-4.30714
43.25000,-7.20798,-4.29647
43.30000,-7.21638,-4.31257
43.35000,-7.22478,-4.30420
43.40000,-7.23318,-4.31694
43.45000,-7.24158,-4.31011
43.50000,-7.24972,-4.32140
43.55000,-7.25825,-4.31559
43.60000,-7.26665,-4.32322
43.65000,-7.27478,-4.32451
43.70000,-7.28318,-4.32669
43.75000,-7.29172,-4.33181
43.80000,-7.29985,-4.32912
43.85000,-7.30812,-4.33635
43.90000,-7.31665,-4.33383
43.95000,-7.32478,-4.34316
44.00000,-7.33292,-4.33526
44.05000,-7.34145,-4.35001
44.10000,-7.34985,-4.34030
44.15000,-7.35812,-4.35823
44.20000,-7.36652,-4.34241
44.25000,-7.37492,-4.36644
44.30000,-7.38318,-4.34691
44.35000,-7.39158,-4.37095
44.40000,-7.39985,-4.35263
44.45000,-7.40838,-4.37562
44.50000,-7.41665,-4.35852
44.55000,-7.42478,-4.38163
44.60000,-7.43332,-4.36150
44.65000,-7.44158,-4.38648
44.70000,-7.44985,-4.36958
44.75000,-7.45811,-4.38751
44.80000,-7.46665,-4.37800
44.85000,-7.47478,-4.39159
44.90000,-7.48305,-4.38597
44.95000,-7.49172,-4.39223
45.00000,-7.50011,-4.39678
45.05000,-7.50825,-4.39886
45.10000,-7.51665,-4.40043
45.15000,-7.52518,-4.40531
45.20000,-7.53318,-4.40273
45.25000,-7.54158,-4.41357
45.30000,-7.55011,-4.40874
45.35000,-7.55838,-4.41469
45.40000,-7.56651,-4.41824
45.45000,-7.57491,-4.41780
45.50000,-7.58332,-4.42525
45.55000,-7.59158,-4.41903
45.60000,-7.59985,-4.43433
45.65000,-7.60811,-4.42495
45.70000,-7.61665,-4.43602
45.75000,-7.62491,-4.43462
45.80000,-7.63305,-4.44051
45.85000,-7.64171,-4.44057
45.90000,-7.65011,-4.44900
45.95000,-7.65811,-4.44551
46.00000,-7.66638,-4.45561
46.05000,-7.67505,-4.45097
46.10000,-7.68318,-4.46227
46.15000,-7.69158,-4.45772
46.20000,-7.70011,-4.46910
46.25000,-7.70825,-4.46399
46.30000,-7.71638,-4.47384
46.35000,-7.72478,-4.46893
46.40000,-7.73305,-4.47966
46.45000,-7.74131,-4.47578
46.50000,-7.74985,-4.48462
46.55000,-7.75811,-4.48388
46.60000,-7.76651,-4.48874
46.65000,-7.77491,-4.49334
46.70000,-7.78305,-4.49584
46.75000,-7.79171,-4.49898
46.80000,-7.79998,-4.50125
46.85000,-7.80811,-4.50860
46.90000,-7.81651,-4.50561
46.95000,-7.82505,-4.51446
47.00000,-7.83318,-4.51296
47.05000,-7.84145,-4.51954
47.10000,-7.84998,-4.51792
47.15000,-7.85811,-4.52718
47.20000,-7.86625,-4.52353
47.25000,-7.87478,-4.53217
47.30000,-7.88318,-4.53012
47.35000,-7.89131,-4.53975
47.40000,-7.89985,-4.53468
47.45000,-7.90838,-4.54556
47.50000,-7.91651,-4.54203
47.55000,-7.92478,-4.55223
47.60000,-7.93318,-4.54680
47.65000,-7.94171,-4.55911
47.70000,-7.94998,-4.55380
47.75000,-7.95825,-4.56415
47.80000,-7.96665,-4.55954
47.85000,-7.97518,-4.56946
47.90000,-7.98318,-4.56680
47.95000,-7.99145,-4.57303
48.00000,-7.99998,-4.57148
48.05000,-8.00811,-4.57955
48.10000,-8.01638,-4.57658
48.15000,-8.02505,-4.58432
48.20000,-8.03345,-4.58343
48.25000,-8.04145,-4.58933
48.30000,-8.04985,-4.58805
48.35000,-8.05838,-4.59313
48.40000,-8.06665,-4.59400
48.45000,-8.07491,-4.59907
48.50000,-8.08331,-4.59891
48.55000,-8.09171,-4.60200
48.60000,-8.09998,-4.60399
48.65000,-8.10825,-4.60728
48.70000,-8.11665,-4.60738
48.75000,-8.12491,-4.61054
48.80000,-8.13305,-4.61355
48.85000,-8.14145,-4.61430
48.90000,-8.14998,-4.61833
48.95000,-8.15825,-4.62148
49.00000,-8.16651,-4.62275
49.05000,-8.17505,-4.62488
49.10000,-8.18345,-4.62908
49.15000,-8.19145,-4.62924
49.20000,-8.19985,-4.63079
49.25000,-8.20851,-4.63373
49.30000,-8.21651,-4.63679
49.35000,-8.22478,-4.63614
49.40000,-8.23318,-4.63923
49.45000,-8.24145,-4.63938
49.50000,-8.24971,-4.64224
49.55000,-8.25811,-4.64338
49.60000,-8.26625,-4.64629
49.65000,-8.27465,-4.64888
49.70000,-8.28305,-4.65105
49.75000,-8.29145,-4.65235
49.80000,-8.29985,-4.65713
49.85000,-8.30825,-4.65749
49.90000,-8.31638,-4.66061
49.95000,-8.32491,-4.66031
50.00000,-8.33331,-4.66732
50.05000,-8.34145,-4.66535
50.10000,-8.34985,-4.67166
50.15000,-8.35851,-4.67011
50.20000,-8.36651,-4.67948
50.25000,-8.37478,-4.67118
50.30000,-8.38331,-4.68502
50.35000,-8.39145,-4.67705
50.40000,-8.39958,-4.68898
50.45000,-8.40811,-4.68026
50.50000,-8.41651,-4.69418
50.55000,-8.42478,-4.68590
50.60000,-8.43318,-4.69692
50.65000,-8.44158,-4.69078
50.70000,-8.44998,-4.70273
50.75000,-8.45825,-4.69350
50.80000,-8.46651,-4.70751
50.85000,-8.47505,-4.69733
50.90000,-8.48331,-4.71003
50.95000,-8.49145,-4.70261
51.00000,-8.49985,-4.71084
51.05000,-8.50838,-4.70859
51.10000,-8.51638,-4.71307
51.15000,-8.52465,-4.71024
51.20000,-8.53318,-4.71687
51.25000,-8.54131,-4.71408
51.30000,-8.54958,-4.71787
51.35000,-8.55825,-4.71804
51.40000,-8.56678,-4.72335
51.45000,-8.57491,-4.72091
51.50000,-8.58331,-4.72285
51.55000,-8.59185,-4.72464
51.60000,-8.59985,-4.72463
51.65000,-8.60825,-4.72519
51.70000,-8.61665,-4.72641
51.75000,-8.62505,-4.72774
51.80000,-8.63318,-4.72581
51.85000,-8.64145,-4.72863
51.90000,-8.64985,-4.72566
51.95000,-8.65825,-4.72685
52.00000,-8.66651,-4.72754
52.05000,-8.67491,-4.72686
52.10000,-8.68331,-4.72675
52.15000,-8.69158,-4.72934
52.20000,-8.69985,-4.72803
52.25000,-8.70838,-4.72934
52.30000,-8.71678,-4.73153
52.35000,-8.72478,-4.72950
52.40000,-8.73331,-4.73210
52.45000,-8.74185,-4.73040
52.50000,-8.74985,-4.73443
52.55000,-8.75811,-4.73220
52.60000,-8.76665,-4.73438
52.65000,-8.77478,-4.73510
52.70000,-8.78305,-4.73582
52.75000,-8.79145,-4.73637
52.80000,-8.79971,-4.73869
52.85000,-8.80798,-4.73852
52.90000,-8.81638,-4.74145
52.95000,-8.82478,-4.74082
53.00000,-8.83331,-4.74431
53.05000,-8.84158,-4.74455
53.10000,-8.84971,-4.74607
53.15000,-8.85838,-4.74587
53.20000,-8.86678,-4.74935
53.25000,-8.87478,-4.74855
53.30000,-8.88318,-4.75091
53.35000,-8.89171,-4.74994
53.40000,-8.89971,-4.75472
53.45000,-8.90798,-4.75091
53.50000,-8.91651,-4.75582
53.55000,-8.92465,-4.75640
53.60000,-8.93291,-4.75703
53.65000,-8.94144,-4.75801
53.70000,-8.94985,-4.76230
53.75000,-8.95811,-4.76164
53.80000,-8.96651,-4.76388
53.85000,-8.97478,-4.76638
53.90000,-8.98304,-4.76598
53.95000,-8.99144,-4.76976
54.00000,-8.99971,-4.76908
54.05000,-9.00824,-4.77443
54.10000,-9.01665,-4.77436
54.15000,-9.02491,-4.77873
54.20000,-9.03331,-4.77812
54.25000,-9.04184,-4.78063
54.30000,-9.04984,-4.78245
54.35000,-9.05811,-4.78148
54.40000,-9.06665,-4.78455
54.45000,-9.07478,-4.78467
54.50000,-9.08291,-4.78431
54.55000,-9.09158,-4.78705
54.60000,-9.10011,-4.78859
54.65000,-9.10824,-4.78869
54.70000,-9.11664,-4.78953
54.75000,-9.12518,-4.79001
54.80000,-9.13331,-4.79172
54.85000,-9.14158,-4.78899
54.90000,-9.15011,-4.79373
54.95000,-9.15838,-4.79075
55.00000,-9.16651,-4.79347
55.05000,-9.17491,-4.79196
55.10000,-9.18331,-4.79473
55.15000,-9.19158,-4.79229
55.20000,-9.19984,-4.79678
55.25000,-9.20811,-4.78983
55.30000,-9.21664,-4.79899
55.35000,-9.22491,-4.78983
55.40000,-9.23318,-4.79880
55.45000,-9.24158,-4.78882
55.50000,-9.25011,-4.79972
55.55000,-9.25811,-4.79004
55.60000,-9.26664,-4.79999
55.65000,-9.27518,-4.79125
55.70000,-9.28318,-4.80223
55.75000,-9.29144,-4.78973
55.80000,-9.29998,-4.80292
55.85000,-9.30811,-4.78766
55.90000,-9.31624,-4.80315
55.95000,-9.32478,-4.78755
56.00000,-9.33318,-4.80408
56.05000,-9.34144,-4.78828
56.10000,-9.34984,-4.80559
56.15000,-9.35811,-4.79026
56.20000,-9.36664,-4.80674
56.25000,-9.37491,-4.79245
56.30000,-9.38318,-4.80872
56.35000,-9.39171,-4.79216
56.40000,-9.40011,-4.80957
56.45000,-9.40811,-4.79368
56.50000,-9.41651,-4.80825
56.55000,-9.42504,-4.79466
56.60000,-9.43318,-4.80812
56.65000,-9.44144,-4.79357
56.70000,-9.44998,-4.80775
56.75000,-9.45811,-4.79605
56.80000,-9.46638,-4.80884
56.85000,-9.47491,-4.79638
56.90000,-9.48318,-4.80985
56.95000,-9.49144,-4.80047
57.00000,-9.49984,-4.81075
57.05000,-9.50824,-4.80327
57.10000,-9.51664,-4.81270
57.15000,-9.52491,-4.80661
57.20000,-9.53331,-4.81376
57.25000,-9.54171,-4.80833
57.30000,-9.54998,-4.81291
57.35000,-9.55811,-4.81210
57.40000,-9.56651,-4.81293
57.45000,-9.57491,-4.81442
57.50000,-9.58304,-4.81743
57.55000,-9.59131,-4.81419
57.60000,-9.59998,-4.82028
57.65000,-9.60811,-4.82046
57.70000,-9.61651,-4.82065
57.75000,-9.62504,-4.82584
57.80000,-9.63331,-4.82338
57.85000,-9.64144,-4.82984
57.90000,-9.64984,-4.82513
57.95000,-9.65838,-4.83546
58.00000,-9.66651,-4.82843
58.05000,-9.67504,-4.83956
58.10000,-9.68344,-4.83531
58.15000,-9.69171,-4.84504
58.20000,-9.69998,-4.83762
58.25000,-9.70824,-4.85073
58.30000,-9.71678,-4.84110
58.35000,-9.72504,-4.85691
58.40000,-9.73318,-4.84592
58.45000,-9.74144,-4.86184
58.50000,-9.74998,-4.85112
58.55000,-9.75824,-4.86859
58.60000,-9.76651,-4.85806
58.65000,-9.77504,-4.87299
58.70000,-9.78344,-4.86522
58.75000,-9.79144,-4.87962
58.80000,-9.79984,-4.87004
58.85000,-9.80838,-4.88502
58.90000,-9.81651,-4.87668
58.95000,-9.82478,-4.88355
59.00000,-9.83331,-4.87599
59.05000,-9.84131,-4.88886
59.10000,-9.84958,-4.88181
59.15000,-9.85811,-4.89382
59.20000,-9.86651,-4.89047
59.25000,-9.87478,-4.89857
59.30000,-9.88318,-4.89669
59.35000,-9.89144,-4.90455
59.40000,-9.89984,-4.90218
59.45000,-9.90811,-4.91069
59.50000,-9.91624,-4.90883
59.55000,-9.92491,-4.91583
59.60000,-9.93331,-4.91777
59.65000,-9.94131,-4.92247
59.70000,-9.94984,-4.92361
59.75000,-9.95838,-4.92942
59.80000,-9.96638,-4.93187
59.85000,-9.97464,-4.93211
59.90000,-9.98318,-4.93919
59.95000,-9.99144,-4.94043
60.00000,-9.99958,-4.94703
60.05000,-10.00811,-4.94457
60.10000,-10.01664,-4.95652
60.15000,-10.02491,-4.95500
60.20000,-10.03331,-4.96290
60.25000,-10.04171,-4.96122
60.30000,-10.05011,-4.97075
60.35000,-10.05838,-4.96803
60.40000,-10.06664,-4.97733
60.45000,-10.07504,-4.97350
60.50000,-10.08344,-4.98436
60.55000,-10.09144,-4.97998
60.60000,-10.09998,-4.98888
60.65000,-10.10837,-4.98740
60.70000,-10.11638,-4.99385
60.75000,-10.12478,-4.99252
60.80000,-10.13331,-4.99842
60.85000,-10.14144,-5.00008
60.90000,-10.14958,-5.00246
60.95000,-10.15824,-5.00765
61.00000,-10.16664,-5.01153
61.05000,-10.17478,-5.01589
61.10000,-10.18331,-5.01899
61.15000,-10.19184,-5.02421
61.20000,-10.19998,-5.02777
61.25000,-10.20837,-5.03237
61.30000,-10.21678,-5.03434
61.35000,-10.22504,-5.04161
61.40000,-10.23318,-5.04040
61.45000,-10.24144,-5.04756
61.50000,-10.24984,-5.04861
61.55000,-10.25811,-5.05678
61.60000,-10.26637,-5.05869
61.65000,-10.27464,-5.06585
61.70000,-10.28317,-5.06594
61.75000,-10.29158,-5.07740
61.80000,-10.29971,-5.07563
61.85000,-10.30824,-5.08559
61.90000,-10.31664,-5.08628
61.95000,-10.32464,-5.09607
62.00000,-10.33317,-5.09593
62.05000,-10.34184,-5.10559
62.10000,-10.34984,-5.10696
62.15000,-10.35824,-5.11570
62.20000,-10.36678,-5.11634
62.25000,-10.37491,-5.12519
62.30000,-10.38317,-5.12553
62.35000,-10.39157,-5.13403
62.40000,-10.39971,-5.13474
62.45000,-10.40797,-5.14313
62.50000,-10.41637,-5.14594
62.55000,-10.42464,-5.15315
62.60000,-10.43317,-5.15689
62.65000,-10.44157,-5.16470
62.70000,-10.44971,-5.16879
62.75000,-10.45824,-5.17393
62.80000,-10.46664,-5.17952
62.85000,-10.47477,-5.18501
62.90000,-10.48317,-5.18960
62.95000,-10.49171,-5.19468
63.00000,-10.49984,-5.20021
63.05000,-10.50811,-5.20326
63.10000,-10.51664,-5.20864
63.15000,-10.52464,-5.21305
63.20000,-10.53291,-5.21800
63.25000,-10.54144,-5.22242
63.30000,-10.54984,-5.22965
63.35000,-10.55811,-5.23405
63.40000,-10.56651,-5.23981
63.45000,-10.57491,-5.24375
63.50000,-10.58317,-5.24938
63.55000,-10.59157,-5.25406
63.60000,-10.59984,-5.25964
63.65000,-10.60837,-5.26244
63.70000,-10.61677,-5.26885
63.75000,-10.62477,-5.27283
63.80000,-10.63331,-5.27618
63.85000,-10.64171,-5.28070
63.90000,-10.64984,-5.28678
63.95000,-10.65811,-5.28941
64.00000,-10.66651,-5.29586
64.05000,-10.67477,-5.29869
64.10001,-10.68317,-5.30526
64.15000,-10.69171,-5.30769
64.20000,-10.70011,-5.31431
64.25000,-10.70811,-5.31571
64.30000,-10.71664,-5.32246
64.35001,-10.72517,-5.32561
64.40000,-10.73331,-5.33203
64.45000,-10.74171,-5.33435
64.50000,-10.75011,-5.34182
64.55000,-10.75837,-5.34284
64.60001,-10.76664,-5.34942
64.65000,-10.77491,-5.35252
64.70000,-10.78331,-5.35897
64.75000,-10.79157,-5.36201
64.80000,-10.79984,-5.36897
64.85001,-10.80811,-5.37323
64.90000,-10.81664,-5.37466
64.95000,-10.82477,-5.38807
65.00000,-10.83304,-5.38505
65.05000,-10.84157,-5.39822
65.10001,-10.85011,-5.39551
65.15000,-10.85824,-5.40980
65.20000,-10.86664,-5.40711
65.25000,-10.87517,-5.42086
65.30000,-10.88331,-5.41767
65.35001,-10.89157,-5.43245
65.40000,-10.89997,-5.42643
65.45000,-10.90797,-5.44012
65.50000,-10.91624,-5.43801
65.55000,-10.92464,-5.44765
65.60001,-10.93304,-5.45049
65.65000,-10.94131,-5.45796
65.70001,-10.94971,-5.46369
65.75000,-10.95811,-5.46988
65.80000,-10.96651,-5.47354
65.85001,-10.97477,-5.48359
65.90000,-10.98304,-5.48460
65.95001,-10.99157,-5.49142
66.00000,-10.99997,-5.49720
66.05000,-11.00811,-5.50362
66.10001,-11.01664,-5.50863
66.15000,-11.02517,-5.51367
66.20001,-11.03304,-5.52082
66.25000,-11.04144,-5.52268
66.30000,-11.04997,-5.52876
66.35001,-11.05811,-5.53588
66.40000,-11.06624,-5.53869
66.45001,-11.07477,-5.54462
66.50000,-11.08317,-5.55181
66.55000,-11.09144,-5.55685
66.60001,-11.09984,-5.56226
66.65000,-11.10837,-5.57060
66.70001,-11.11664,-5.57302
66.75000,-11.12491,-5.58269
66.80000,-11.13331,-5.58631
66.85001,-11.14171,-5.59032
66.90000,-11.15011,-5.59952
66.95001,-11.15824,-5.60349
67.00000,-11.16664,-5.60509
67.05000,-11.17491,-5.61448
67.10001,-11.18304,-5.61796
67.15000,-11.19144,-5.62278
67.20001,-11.19997,-5.62761
67.25000,-11.20811,-5.63682
67.30000,-11.21637,-5.63720
67.35001,-11.22504,-5.64779
67.40000,-11.23331,-5.65219
67.45001,-11.24144,-5.65536
67.50000,-11.24984,-5.66348
67.55000,-11.25837,-5.67038
67.60001,-11.26651,-5.67414
67.65000,-11.27504,-5.67986
67.70001,-11.28344,-5.68777
67.75000,-11.29157,-5.69102
67.80000,-11.29984,-5.69702
67.85001,-11.30824,-5.70185
67.90000,-11.31651,-5.70762
67.95001,-11.32491,-5.71449
68.00000,-11.33317,-5.71741
68.05000,-11.34144,-5.72386
68.10001,-11.34997,-5.73026
68.15000,-11.35824,-5.73419
68.20001,-11.36651,-5.73784
68.25000,-11.37504,-5.74704
68.30000,-11.38331,-5.75056
68.35001,-11.39131,-5.75538
68.40000,-11.39984,-5.75929
68.45001,-11.40837,-5.76660
68.50000,-11.41651,-5.77035
68.55000,-11.42477,-5.77725
68.60001,-11.43331,-5.77876
68.65000,-11.44144,-5.78916
68.70001,-11.44984,-5.78955
68.75000,-11.45811,-5.79813
68.80000,-11.46651,-5.80086
68.85001,-11.47464,-5.80686
68.90000,-11.48304,-5.81041
68.95001,-11.49144,-5.81558
69.00000,-11.49984,-5.81955
69.05000,-11.50824,-5.82427
69.10001,-11.51637,-5.83081
69.15000,-11.52491,-5.82922
69.20001,-11.53344,-5.84070
69.25000,-11.54144,-5.84035
69.30000,-11.54997,-5.84528
69.35001,-11.55837,-5.84781
69.40000,-11.56637,-5.85373
69.45001,-11.57464,-5.85311
69.50000,-11.58317,-5.85881
69.55000,-11.59131,-5.86111
69.60001,-11.59957,-5.86689
69.65000,-11.60811,-5.86640
69.70001,-11.61664,-5.87741
69.75000,-11.62491,-5.87521
69.80000,-11.63317,-5.88485
69.85001,-11.64157,-5.88295
69.90000,-11.64984,-5.89091
69.95001,-11.65824,-5.89026
70.00000,-11.66664,-5.90032
70.05000,-11.67504,-5.89785
70.10001,-11.68344,-5.90894
70.15000,-11.69157,-5.90666
70.20001,-11.69997,-5.91412
70.25000,-11.70837,-5.91568
70.30000,-11.71650,-5.92173
70.35001,-11.72477,-5.92125
70.40000,-11.73330,-5.93033
70.45001,-11.74157,-5.93069
70.50000,-11.74984,-5.93680
70.55000,-11.75837,-5.93801
70.60001,-11.76677,-5.94929
70.65000,-11.77491,-5.94471
70.70001,-11.78330,-5.95685
70.75000,-11.79184,-5.95412
70.80000,-11.79997,-5.96328
70.85001,-11.80837,-5.95903
70.90000,-11.81677,-5.97179
70.95001,-11.82490,-5.96808
71.00000,-11.83330,-5.97917
71.05000,-11.84170,-5.97730
71.10001,-11.84997,-5.98698
71.15000,-11.85824,-5.98611
71.20001,-11.86650,-5.99723
71.25000,-11.87477,-5.99266
71.30000,-11.88317,-6.00520
71.35001,-11.89157,-6.00559
71.40000,-11.89984,-6.01510
71.45001,-11.90837,-6.01510
71.50000,-11.91677,-6.02607
71.55000,-11.92477,-6.02672
71.60001,-11.93330,-6.03264
71.65000,-11.94184,-6.03751
71.70001,-11.94984,-6.04342
71.75000,-11.95810,-6.04558
71.80000,-11.96650,-6.05247
71.85001,-11.97464,-6.05526
71.90000,-11.98304,-6.06296
71.95001,-11.99144,-6.06515
72.00000,-11.99984,-6.07378
72.05000,-12.00810,-6.07647
72.10001,-12.01637,-6.08476
72.15000,-12.02477,-6.08695
72.20001,-12.03330,-6.09541
72.25000,-12.04157,-6.09968
72.30000,-12.04970,-6.10612
72.35001,-12.05824,-6.10719
72.40000,-12.06664,-6.11825
72.45001,-12.07477,-6.11638
72.50000,-12.08330,-6.12687
72.55000,-12.09170,-6.12633
72.60001,-12.09970,-6.13630
72.65000,-12.10810,-6.13222
72.70001,-12.11664,-6.14395
72.75000,-12.12477,-6.14378
72.80000,-12.13304,-6.15097
72.85001,-12.14157,-6.15075
72.90000,-12.14984,-6.16146
72.95001,-12.15810,-6.16038
73.00000,-12.16650,-6.16821
73.05000,-12.17490,-6.16964
73.10001,-12.18330,-6.17663
73.15000,-12.19170,-6.17736
73.20001,-12.19997,-6.18562
73.25000,-12.20850,-6.18594
73.30000,-12.21664,-6.19138
73.35001,-12.22477,-6.19548
73.40000,-12.23330,-6.19594
73.45001,-12.24157,-6.20443
73.50000,-12.24970,-6.20562
73.55000,-12.25797,-6.21152
73.60001,-12.26650,-6.21436
73.65000,-12.27477,-6.22330
73.70001,-12.28304,-6.22257
73.75000,-12.29170,-6.23360
73.80000,-12.29997,-6.23596
73.85001,-12.30797,-6.24314
73.90000,-12.31637,-6.24327
73.95001,-12.32504,-6.25520
74.00000,-12.33330,-6.25598
74.05000,-12.34170,-6.26607
74.10001,-12.35024,-6.26890
74.15000,-12.35837,-6.27700
74.20001,-12.36664,-6.27892
74.25000,-12.37490,-6.28683
74.30000,-12.38330,-6.28878
74.35001,-12.39157,-6.29632
74.40000,-12.39970,-6.29920
74.45001,-12.40810,-6.30554
74.50000,-12.41664,-6.30968
74.55000,-12.42477,-6.31897
74.60001,-12.43304,-6.32133
74.65000,-12.44170,-6.32860
74.70001,-12.45010,-6.33496
74.75000,-12.45810,-6.34032
74.80000,-12.46650,-6.34349
74.85001,-12.47504,-6.35142
74.90000,-12.48317,-6.35515
74.95001,-12.49157,-6.36140
75.00000,-12.49997,-6.36448
75.05000,-12.50810,-6.37177
75.10001,-12.51637,-6.37451
75.15000,-12.52490,-6.38171
75.20001,-12.53317,-6.38468
75.25000,-12.54130,-6.39117
75.30000,-12.54970,-6.39441
75.35001,-12.55797,-6.40091
75.40000,-12.56650,-6.40498
75.45001,-12.57490,-6.41275
75.50000,-12.58304,-6.41591
75.55000,-12.59157,-6.42096
75.60001,-12.60010,-6.42714
75.65000,-12.60810,-6.43117
75.70001,-12.61650,-6.43540
75.75000,-12.62517,-6.44129
75.80000,-12.63304,-6.44709
75.85001,-12.64130,-6.44962
75.90000,-12.64997,-6.45606
75.95001,-12.65810,-6.46217
76.00000,-12.66624,-6.46751
76.05000,-12.67477,-6.47242
76.10001,-12.68317,-6.48221
76.15000,-12.69144,-6.48522
76.20001,-12.69984,-6.49216
76.25000,-12.70837,-6.49841
76.30000,-12.71650,-6.50474
76.35001,-12.72490,-6.50967
76.40000,-12.73317,-6.51694
76.45001,-12.74170,-6.52027
76.50000,-12.74997,-6.52907
76.55000,-12.75810,-6.53394
76.60001,-12.76664,-6.53843
76.65000,-12.77504,-6.54496
76.70001,-12.78317,-6.55220
76.75000,-12.79144,-6.55477
76.80000,-12.79997,-6.56006
76.85001,-12.80810,-6.57211
76.90000,-12.81624,-6.56632
76.95001,-12.82504,-6.58677
77.00000,-12.83344,-6.58428
77.05000,-12.84157,-6.59751
77.10001,-12.84997,-6.59714
77.15000,-12.85850,-6.61140
77.20001,-12.86663,-6.61008
77.25000,-12.87504,-6.62399
77.30000,-12.88344,-6.62121
77.35001,-12.89170,-6.63644
77.40000,-12.89984,-6.63286
77.45001,-12.90824,-6.64883
77.50000,-12.91663,-6.64465
77.55000,-12.92490,-6.66137
77.60001,-12.93304,-6.65886
77.65000,-12.94130,-6.67237
77.70001,-12.94997,-6.67297
77.75000,-12.95824,-6.68816
77.80000,-12.96637,-6.68575
77.85001,-12.97490,-6.69883
77.90000,-12.98330,-6.70110
77.95001,-12.99130,-6.71328
78.00000,-12.99997,-6.71380
78.05000,-13.00850,-6.72999
78.10001,-13.01663,-6.73229
78.15000,-13.02490,-6.74199
78.20001,-13.03330,-6.74370
78.25000,-13.04143,-6.75823
78.30000,-13.04970,-6.75690
78.35001,-13.05810,-6.77216
78.40000,-13.06637,-6.77135
78.45001,-13.07463,-6.78468
78.50000,-13.08304,-6.78563
78.55000,-13.09143,-6.79893
78.60001,-13.09997,-6.80043
78.65000,-13.10837,-6.81406
78.70001,-13.11650,-6.81336
78.75000,-13.12503,-6.82601
78.80000,-13.13343,-6.82859
78.85001,-13.14143,-6.84140
78.90000,-13.14983,-6.84187
78.95001,-13.15837,-6.85629
79.00000,-13.16637,-6.85740
79.05000,-13.17463,-6.86895
79.10001,-13.18330,-6.87166
79.15000,-13.19143,-6.88665
79.20001,-13.19957,-6.88598
79.25000,-13.20823,-6.89772
79.30000,-13.21650,-6.90293
79.35001,-13.22477,-6.91296
79.40000,-13.23317,-6.91643
79.45001,-13.24157,-6.93003
79.50000,-13.24997,-6.93327
79.55000,-13.25823,-6.94502
79.60001,-13.26650,-6.95023
79.65000,-13.27503,-6.96029
79.70001,-13.28330,-6.96652
79.75000,-13.29143,-6.97622
79.80000,-13.29997,-6.97930
79.85001,-13.30837,-6.99181
79.90000,-13.31650,-6.99731
79.95001,-13.32477,-7.00379
80.00000,-13.33330,-7.01526
80.05000,-13.34143,-7.02056
80.10001,-13.34970,-7.03065
80.15000,-13.35837,-7.03642
80.20001,-13.36677,-7.05208
80.25000,-13.37490,-7.05140
80.30000,-13.38330,-7.06857
80.35001,-13.39183,-7.06797
80.40000,-13.39997,-7.08495
80.45001,-13.40837,-7.08279
80.50001,-13.41677,-7.09940
80.55000,-13.42503,-7.09950
80.60001,-13.43317,-7.11163
80.65000,-13.44143,-7.11312
80.70001,-13.44997,-7.12566
80.75001,-13.45823,-7.12797
80.80000,-13.46650,-7.14187
80.85001,-13.47477,-7.14248
80.90000,-13.48330,-7.15161
80.95001,-13.49157,-7.16697
81.00001,-13.49983,-7.16178
81.05000,-13.50837,-7.18349
81.10001,-13.51677,-7.18104
81.15000,-13.52490,-7.20055
81.20001,-13.53330,-7.19357
81.25001,-13.54183,-7.21529
81.30000,-13.54983,-7.21136
81.35001,-13.55810,-7.22926
81.40000,-13.56650,-7.22229
81.45001,-13.57477,-7.24376
81.50001,-13.58303,-7.23798
81.55000,-13.59143,-7.25863
81.60001,-13.59970,-7.25373
81.65000,-13.60797,-7.27299
81.70001,-13.61637,-7.27022
81.75001,-13.62463,-7.28833
81.80000,-13.63330,-7.28767
81.85001,-13.64157,-7.30511
81.90000,-13.64970,-7.30642
81.95001,-13.65823,-7.31930
82.00001,-13.66663,-7.32378
82.05000,-13.67477,-7.33529
82.10001,-13.68317,-7.33693
82.15000,-13.69170,-7.35394
82.20001,-13.69970,-7.34930
82.25001,-13.70797,-7.36799
82.30000,-13.71663,-7.36408
82.35001,-13.72477,-7.38698
82.40000,-13.73290,-7.37843
82.45001,-13.74143,-7.40038
82.50001,-13.74983,-7.39188
82.55000,-13.75810,-7.41279
82.60001,-13.76650,-7.40655
82.65000,-13.77490,-7.42879
82.70001,-13.78343,-7.41530
82.75001,-13.79170,-7.44907
82.80000,-13.79983,-7.43047
82.85001,-13.80837,-7.45648
82.90000,-13.81677,-7.44670
82.95001,-13.82477,-7.47165
83.00001,-13.83317,-7.45615
83.05000,-13.84170,-7.48371
83.10001,-13.84983,-7.47227
83.15000,-13.85810,-7.49769
83.20001,-13.86677,-7.47863
83.25001,-13.87490,-7.52258
83.30000,-13.88303,-7.48642
83.35001,-13.89157,-7.53322
83.40000,-13.90010,-7.50619
83.45001,-13.90810,-7.54589
83.50001,-13.91663,-7.52079
83.55000,-13.92517,-7.55674
83.60001,-13.93317,-7.53683
83.65000,-13.94157,-7.56455
83.70001,-13.94997,-7.55488
83.75001,-13.95837,-7.57249
83.80000,-13.96663,-7.57190
83.85001,-13.97490,-7.58008
83.90000,-13.98330,-7.58388
83.95001,-13.99170,-7.59254
84.00001,-13.99983,-7.59699
84.05000,-14.00810,-7.59774
84.10001,-14.01663,-7.61051
84.15000,-14.02490,-7.61153
84.20001,-14.03317,-7.62494
84.25001,-14.04170,-7.61986
84.30000,-14.05010,-7.63690
84.35001,-14.05823,-7.64027
84.40000,-14.06663,-7.64277
84.45001,-14.07517,-7.65422
84.50001,-14.08317,-7.65584
84.55000,-14.09143,-7.66558
84.60001,-14.09997,-7.67057
84.65000,-14.10810,-7.67530
84.70001,-14.11637,-7.68251
84.75001,-14.12490,-7.68803
84.80000,-14.13317,-7.69747
84.85001,-14.14130,-7.69708
84.90000,-14.14970,-7.70991
84.95001,-14.15797,-7.70702
85.00001,-14.16663,-7.72190
85.05000,-14.17503,-7.72582
85.10001,-14.18303,-7.73403
85.15000,-14.19170,-7.73570
85.20001,-14.20010,-7.75210
85.25001,-14.20810,-7.75050
85.30000,-14.21650,-7.76375
85.35001,-14.22503,-7.76310
85.40000,-14.23303,-7.77455
85.45001,-14.24130,-7.77929
85.50001,-14.24997,-7.78481
85.55000,-14.25810,-7.79456
85.60001,-14.26623,-7.79912
85.65000,-14.27476,-7.80562
85.70001,-14.28317,-7.81429
85.75001,-14.29130,-7.82440
85.80000,-14.29983,-7.82740
85.85001,-14.30823,-7.84164
85.90000,-14.31663,-7.84027
85.95001,-14.32490,-7.85929
86.00001,-14.33330,-7.85602
86.05000,-14.34170,-7.87253
86.10001,-14.35010,-7.87221
86.15000,-14.35823,-7.88517
86.20001,-14.36663,-7.88248
86.25001,-14.37503,-7.89581
86.30000,-14.38303,-7.89735
86.35001,-14.39130,-7.90436
86.40000,-14.39983,-7.90688
86.45001,-14.40810,-7.92311
86.50001,-14.41636,-7.92052
86.55000,-14.42503,-7.93475
86.60001,-14.43330,-7.93997
86.65000,-14.44143,-7.94418
86.70001,-14.44996,-7.95070
86.75001,-14.45850,-7.96115
86.80000,-14.46663,-7.96591
86.85001,-14.47490,-7.97316
86.90000,-14.48343,-7.98102
86.95001,-14.49170,-7.98622
87.00001,-14.49996,-7.99486
87.05000,-14.50836,-7.99942
87.10001,-14.51676,-8.00911
87.15000,-14.52503,-8.01344
87.20001,-14.53316,-8.02508
87.25001,-14.54143,-8.02493
87.30000,-14.54996,-8.03776
87.35001,-14.55810,-8.04486
87.40000,-14.56636,-8.04218
87.45001,-14.57503,-8.06438
87.50001,-14.58343,-8.06426
87.55000,-14.59130,-8.07657
87.60001,-14.59983,-8.07443
87.65000,-14.60836,-8.09072
87.70001,-14.61650,-8.09505
87.75001,-14.62476,-8.10351
87.80000,-14.63330,-8.10671
87.85001,-14.64156,-8.12397
87.90000,-14.64970,-8.12056
87.95001,-14.65810,-8.13785
88.00001,-14.66636,-8.13814
88.05000,-14.67463,-8.15458
88.10001,-14.68303,-8.15949
88.15000,-14.69130,-8.17097
88.20001,-14.69983,-8.17663
88.25001,-14.70823,-8.19442
88.30000,-14.71636,-8.19684
88.35001,-14.72490,-8.21337
88.40000,-14.73330,-8.21729
88.45001,-14.74143,-8.23370
88.50001,-14.74983,-8.23421
88.55000,-14.75836,-8.25263
88.60001,-14.76636,-8.25881
88.65000,-14.77463,-8.27141
88.70001,-14.78316,-8.27896
88.75001,-14.79143,-8.29273
88.80000,-14.79956,-8.29682
88.85001,-14.80810,-8.31134
88.90000,-14.81663,-8.32054
88.95001,-14.82490,-8.33342
89.00001,-14.83330,-8.34077
89.05000,-14.84170,-8.35488
89.10001,-14.84996,-8.36209
89.15000,-14.85823,-8.37362
89.20001,-14.86650,-8.38292
89.25001,-14.87503,-8.39145
89.30000,-14.88343,-8.40453
89.35001,-14.89156,-8.41402
89.40000,-14.89983,-8.41960
89.45001,-14.90836,-8.43289
89.50001,-14.91636,-8.44246
89.55000,-14.92476,-8.45145
89.60001,-14.93330,-8.46241
89.65000,-14.94143,-8.47691
89.70001,-14.94970,-8.48463
89.75001,-14.95823,-8.49642
89.80000,-14.96676,-8.51139
89.85001,-14.97490,-8.52012
89.90000,-14.98330,-8.53261
89.95001,-14.99183,-8.54542
90.00001,-14.99996,-8.55512
90.05000,-15.00836,-8.56607
90.10001,-15.01676,-8.57909
90.15000,-15.02503,-8.58919
90.20001,-15.03330,-8.60147
90.20200,-15.03356,-8.60166
