Time,Extension,Load
(sec),(mm),(N)
0.00000,0.00000,-0.11406
0.05000,-0.00120,-0.11688
0.10000,-0.00600,-0.11959
0.15000,-0.01507,-0.12899
0.20000,-0.02547,-0.14111
0.25000,-0.03573,-0.15314
0.30000,-0.04560,-0.16499
0.35000,-0.05507,-0.17516
0.40000,-0.06413,-0.18301
0.45000,-0.07307,-0.19491
0.50000,-0.08213,-0.20078
0.55000,-0.09067,-0.21222
0.60000,-0.09920,-0.21708
0.65000,-0.10787,-0.22863
0.70000,-0.11627,-0.23449
0.75000,-0.12467,-0.24375
0.80000,-0.13320,-0.25091
0.85000,-0.14160,-0.25899
0.90000,-0.14987,-0.26888
0.95000,-0.15827,-0.27279
1.00000,-0.16653,-0.28430
1.05000,-0.17480,-0.28914
1.10000,-0.18307,-0.29933
1.15000,-0.19147,-0.30538
1.20000,-0.19973,-0.31547
1.25000,-0.20813,-0.32064
1.30000,-0.21653,-0.33061
1.35000,-0.22493,-0.33731
1.40000,-0.23333,-0.34572
1.45000,-0.24160,-0.35448
1.50000,-0.25000,-0.36170
1.55000,-0.25840,-0.36959
1.60000,-0.26667,-0.38029
1.65000,-0.27493,-0.38469
1.70000,-0.28347,-0.39484
1.75000,-0.29160,-0.40229
1.80000,-0.29973,-0.41041
1.85000,-0.30827,-0.41894
1.90000,-0.31667,-0.42678
1.95000,-0.32467,-0.43517
2.00000,-0.33307,-0.44395
2.05000,-0.34160,-0.45142
2.10000,-0.35000,-0.46091
2.15000,-0.35827,-0.46863
2.20000,-0.36680,-0.47754
2.25000,-0.37520,-0.48563
2.30000,-0.38333,-0.49522
2.35000,-0.39173,-0.50223
2.40000,-0.40013,-0.51401
2.45000,-0.40853,-0.51589
2.50000,-0.41680,-0.53315
2.55000,-0.42493,-0.53425
2.60000,-0.43347,-0.54593
2.65000,-0.44173,-0.55360
2.70000,-0.44973,-0.56196
2.75000,-0.45827,-0.57279
2.80000,-0.46653,-0.57770
2.85000,-0.47467,-0.59056
2.90000,-0.48320,-0.59597
2.95000,-0.49187,-0.60730
3.00000,-0.49987,-0.61473
3.05000,-0.50827,-0.62437
3.10000,-0.51693,-0.63301
3.15000,-0.52507,-0.64309
3.20000,-0.53333,-0.65031
3.25000,-0.54160,-0.66014
3.30000,-0.55000,-0.66951
3.35000,-0.55827,-0.67553
3.40000,-0.56667,-0.68796
3.45000,-0.57493,-0.69521
3.50000,-0.58333,-0.70435
3.55000,-0.59160,-0.71248
3.60000,-0.59973,-0.72443
3.65000,-0.60827,-0.72917
3.70000,-0.61667,-0.74231
3.75000,-0.62480,-0.74929
3.80000,-0.63333,-0.75950
3.85000,-0.64187,-0.76719
3.90000,-0.65000,-0.77927
3.95000,-0.65827,-0.78512
4.00000,-0.66680,-0.79717
4.05000,-0.67507,-0.80423
4.10000,-0.68320,-0.81446
4.15000,-0.69160,-0.82407
4.20000,-0.70000,-0.83108
4.25000,-0.70813,-0.84404
4.30000,-0.71640,-0.84982
4.35000,-0.72480,-0.86061
4.40000,-0.73320,-0.87103
4.45000,-0.74146,-0.87812
4.50000,-0.74986,-0.88891
4.55000,-0.75826,-0.89819
4.60000,-0.76666,-0.90625
4.65000,-0.77493,-0.91687
4.70000,-0.78333,-0.92584
4.75000,-0.79173,-0.93616
4.80000,-0.80000,-0.94388
4.85000,-0.80826,-0.95572
4.90000,-0.81693,-0.96211
4.95000,-0.82506,-0.97357
5.00000,-0.83320,-0.98136
5.05000,-0.84160,-0.99122
5.10000,-0.85000,-1.00077
5.15000,-0.85813,-1.01008
5.20000,-0.86640,-1.01759
5.25000,-0.87506,-1.03054
5.30000,-0.88333,-1.03567
5.35000,-0.89146,-1.04990
5.40000,-0.90000,-1.05448
5.45000,-0.90840,-1.06769
5.50000,-0.91666,-1.07567
5.55000,-0.92506,-1.08462
5.60000,-0.93346,-1.09560
5.65000,-0.94186,-1.10384
5.70000,-0.95000,-1.11358
5.75000,-0.95826,-1.12258
5.80000,-0.96680,-1.13226
5.85000,-0.97493,-1.14190
5.90000,-0.98306,-1.15076
5.95000,-0.99160,-1.16074
6.00000,-1.00000,-1.17011
6.05000,-1.00800,-1.17915
6.10000,-1.01666,-1.18866
6.15000,-1.02520,-1.19806
6.20000,-1.03333,-1.20812
6.25000,-1.04160,-1.21660
6.30000,-1.05013,-1.22730
6.35000,-1.05826,-1.23524
6.40000,-1.06666,-1.24556
6.45000,-1.07520,-1.25472
6.50000,-1.08346,-1.26338
6.55000,-1.09160,-1.27348
6.60000,-1.10000,-1.28230
6.65000,-1.10813,-1.29130
6.70000,-1.11653,-1.30089
6.75000,-1.12480,-1.31055
6.80000,-1.13293,-1.31942
6.85000,-1.14173,-1.33029
6.90000,-1.15013,-1.33781
6.95000,-1.15826,-1.35025
7.00000,-1.16666,-1.35599
7.05000,-1.17520,-1.36761
7.10000,-1.18333,-1.37611
7.15000,-1.19160,-1.38662
7.20000,-1.20013,-1.39442
7.25000,-1.20826,-1.40540
7.30000,-1.21640,-1.41322
7.35000,-1.22493,-1.42361
7.40000,-1.23333,-1.43191
7.45000,-1.24146,-1.44232
7.50000,-1.24986,-1.45090
7.55000,-1.25826,-1.46130
7.60000,-1.26640,-1.46896
7.65000,-1.27480,-1.47946
7.70000,-1.28320,-1.48869
7.75000,-1.29173,-1.49841
7.80000,-1.30013,-1.50743
7.85000,-1.30826,-1.51803
7.90000,-1.31666,-1.52654
7.95000,-1.32520,-1.53704
8.00000,-1.33346,-1.54551
8.05000,-1.34160,-1.55576
8.10000,-1.35013,-1.56422
8.15000,-1.35840,-1.57449
8.20000,-1.36653,-1.58320
8.25000,-1.37493,-1.59298
8.30000,-1.38320,-1.60176
8.35000,-1.39133,-1.61161
8.40000,-1.39973,-1.62012
8.45000,-1.40840,-1.63105
8.50000,-1.41666,-1.63949
8.55000,-1.42493,-1.64946
8.60000,-1.43333,-1.65874
8.65000,-1.44173,-1.66854
8.70000,-1.45000,-1.67742
8.75000,-1.45840,-1.68738
8.80000,-1.46680,-1.69677
8.85000,-1.47520,-1.70570
8.90000,-1.48346,-1.71585
8.95000,-1.49160,-1.72347
9.00000,-1.50013,-1.73392
9.05000,-1.50826,-1.74207
9.10000,-1.51640,-1.75163
9.15000,-1.52493,-1.76088
9.20000,-1.53333,-1.76956
9.25000,-1.54146,-1.77937
9.30000,-1.55000,-1.78768
9.35000,-1.55853,-1.79768
9.40000,-1.56666,-1.80630
9.45000,-1.57493,-1.81513
9.50000,-1.58360,-1.82482
9.55000,-1.59173,-1.83391
9.60000,-1.60000,-1.84295
9.65000,-1.60840,-1.85112
9.70000,-1.61680,-1.86115
9.75000,-1.62493,-1.86872
9.80000,-1.63333,-1.87893
9.85000,-1.64160,-1.88642
9.90000,-1.65000,-1.89654
9.95000,-1.65826,-1.90449
10.00000,-1.66640,-1.91439
10.05000,-1.67493,-1.92150
10.10000,-1.68333,-1.93246
10.15000,-1.69146,-1.94051
10.20000,-1.70000,-1.94991
10.25000,-1.70853,-1.95844
10.30000,-1.71666,-1.96720
10.35000,-1.72493,-1.97542
10.40000,-1.73346,-1.98601
10.45000,-1.74160,-1.99334
10.50000,-1.74986,-2.00404
10.55000,-1.75826,-2.00996
10.60000,-1.76653,-2.02117
10.65000,-1.77466,-2.02688
10.70000,-1.78293,-2.03753
10.75000,-1.79146,-2.04411
10.80000,-1.79973,-2.05479
10.85000,-1.80813,-2.06222
10.90000,-1.81653,-2.07082
10.95000,-1.82506,-2.07855
11.00000,-1.83346,-2.08192
11.05000,-1.84160,-2.09340
11.10000,-1.85000,-2.10081
11.15000,-1.85853,-2.11002
11.20000,-1.86666,-2.11065
11.25000,-1.87493,-2.11092
11.30000,-1.88346,-2.11231
11.35000,-1.89173,-2.11078
11.40000,-1.89986,-2.11127
11.45000,-1.90826,-2.10993
11.50000,-1.91666,-2.10790
11.55000,-1.92480,-2.10743
11.60000,-1.93306,-2.10601
11.65000,-1.94173,-2.10862
11.70000,-1.95000,-2.10856
11.75000,-1.95826,-2.10780
11.80000,-1.96680,-2.10724
11.85000,-1.97506,-2.10972
11.90000,-1.98333,-2.10984
11.95000,-1.99186,-2.11399
12.00000,-2.00013,-2.11290
12.05000,-2.00853,-2.11166
12.10000,-2.01680,-2.11449
12.15000,-2.02493,-2.11749
12.20000,-2.03346,-2.12225
12.25000,-2.04160,-2.12625
12.30000,-2.04986,-2.12838
12.35000,-2.05839,-2.12798
12.40000,-2.06653,-2.12046
12.45000,-2.07480,-2.12483
12.50000,-2.08333,-2.13084
12.55000,-2.09173,-2.12856
12.60000,-2.09999,-2.13933
12.65000,-2.10826,-2.15040
12.70000,-2.11693,-2.16177
12.75000,-2.12506,-2.17132
12.80000,-2.13346,-2.18425
12.85000,-2.14199,-2.19231
12.90000,-2.15026,-2.20445
12.95000,-2.15839,-2.21206
13.00000,-2.16666,-2.22339
13.05000,-2.17493,-2.23105
13.10000,-2.18333,-2.24248
13.15000,-2.19146,-2.25292
13.20000,-2.19973,-2.26331
13.25000,-2.20826,-2.27298
13.30000,-2.21666,-2.28132
13.35000,-2.22479,-2.29622
13.40000,-2.23319,-2.30284
13.45000,-2.24173,-2.31304
13.50000,-2.24999,-2.32274
13.55000,-2.25826,-2.33253
13.60000,-2.26679,-2.34228
13.65000,-2.27493,-2.35225
13.70000,-2.28319,-2.35945
13.75000,-2.29159,-2.37126
13.80000,-2.29986,-2.38050
13.85000,-2.30813,-2.38785
13.90000,-2.31639,-2.39777
13.95000,-2.32493,-2.40614
14.00000,-2.33319,-2.41460
14.05000,-2.34146,-2.42195
14.10000,-2.34986,-2.43466
14.15000,-2.35826,-2.44068
14.20000,-2.36666,-2.45161
14.25000,-2.37493,-2.45707
14.30000,-2.38333,-2.46737
14.35000,-2.39186,-2.47665
14.40000,-2.39999,-2.48706
14.45000,-2.40826,-2.49171
14.50000,-2.41693,-2.50718
14.55000,-2.42506,-2.51090
14.60000,-2.43319,-2.52174
14.65000,-2.44159,-2.53052
14.70000,-2.44999,-2.54110
14.75000,-2.45799,-2.54555
14.80000,-2.46653,-2.55641
14.85000,-2.47506,-2.56312
14.90000,-2.48346,-2.57555
14.95000,-2.49173,-2.58264
15.00000,-2.50026,-2.58940
15.05000,-2.50853,-2.60111
15.10000,-2.51679,-2.60593
15.15000,-2.52519,-2.61644
15.20000,-2.53346,-2.62168
15.25000,-2.54173,-2.63569
15.30000,-2.55013,-2.63977
15.35000,-2.55839,-2.64952
15.40000,-2.56693,-2.65863
15.45000,-2.57506,-2.66555
15.50000,-2.58306,-2.67485
15.55000,-2.59159,-2.68655
15.60000,-2.59986,-2.68639
15.65000,-2.60799,-2.70163
15.70000,-2.61653,-2.70192
15.75000,-2.62506,-2.71746
15.80000,-2.63319,-2.72330
15.85000,-2.64159,-2.73340
15.90000,-2.65013,-2.73705
15.95000,-2.65839,-2.74928
16.00000,-2.66666,-2.75547
16.05000,-2.67506,-2.76767
16.10000,-2.68333,-2.76960
16.15000,-2.69146,-2.78234
16.20000,-2.69986,-2.78526
16.25000,-2.70813,-2.79950
16.30000,-2.71653,-2.80195
16.35000,-2.72479,-2.81565
16.40000,-2.73293,-2.81864
16.45000,-2.74159,-2.82856
16.50000,-2.74999,-2.83648
16.55000,-2.75813,-2.84547
16.60000,-2.76666,-2.85051
16.65000,-2.77506,-2.86103
16.70000,-2.78319,-2.86523
16.75000,-2.79159,-2.87539
16.80000,-2.80013,-2.88085
16.85000,-2.80839,-2.89098
16.90000,-2.81653,-2.89700
16.95000,-2.82493,-2.90492
17.00000,-2.83319,-2.91056
17.05000,-2.84146,-2.92092
17.10000,-2.84986,-2.92659
17.15000,-2.85826,-2.93501
17.20000,-2.86653,-2.94162
17.25000,-2.87479,-2.94956
17.30000,-2.88319,-2.95617
17.35000,-2.89173,-2.96584
17.40000,-2.90013,-2.97251
17.45000,-2.90826,-2.98212
17.50000,-2.91666,-2.98628
17.55000,-2.92519,-2.99646
17.60000,-2.93333,-3.00362
17.65000,-2.94159,-3.01106
17.70000,-2.95026,-3.01753
17.75000,-2.95839,-3.02826
17.80000,-2.96653,-3.03211
17.85000,-2.97493,-3.04181
17.90000,-2.98333,-3.04791
17.95000,-2.99146,-3.05823
18.00000,-2.99986,-3.06242
18.05000,-3.00839,-3.07197
18.10000,-3.01653,-3.07893
18.15000,-3.02493,-3.08830
18.20000,-3.03346,-3.09319
18.25000,-3.04173,-3.10498
18.30000,-3.05013,-3.10816
18.35000,-3.05853,-3.11921
18.40000,-3.06679,-3.12367
18.45000,-3.07519,-3.13439
18.50000,-3.08346,-3.13959
18.55000,-3.09159,-3.14673
18.60000,-3.09999,-3.15298
18.65000,-3.10813,-3.16058
18.70000,-3.11626,-3.16804
18.75000,-3.12479,-3.17558
18.80000,-3.13319,-3.18203
18.85000,-3.14133,-3.19073
18.90000,-3.14986,-3.19629
18.95000,-3.15853,-3.20528
19.00000,-3.16653,-3.21166
19.05000,-3.17493,-3.22011
19.10000,-3.18346,-3.22669
19.15000,-3.19173,-3.23456
19.20000,-3.19999,-3.24093
19.25000,-3.20839,-3.24899
19.30000,-3.21666,-3.25627
19.35000,-3.22493,-3.26319
19.40000,-3.23333,-3.26975
19.45000,-3.24159,-3.27827
19.50000,-3.24999,-3.28422
19.55000,-3.25826,-3.29338
19.60000,-3.26653,-3.29872
19.65000,-3.27506,-3.30425
19.70000,-3.28346,-3.31572
19.75000,-3.29159,-3.31877
19.80000,-3.30013,-3.32812
19.85000,-3.30866,-3.33454
19.90000,-3.31679,-3.34236
19.95000,-3.32493,-3.34715
20.00000,-3.33359,-3.35605
20.05000,-3.34173,-3.36221
20.10000,-3.34999,-3.36963
20.15000,-3.35826,-3.37613
20.20000,-3.36666,-3.38366
20.25000,-3.37479,-3.39010
20.30000,-3.38306,-3.39801
20.35000,-3.39146,-3.40431
20.40000,-3.39973,-3.40959
20.45000,-3.40812,-3.42098
20.50000,-3.41652,-3.42377
20.55000,-3.42506,-3.43437
20.60000,-3.43332,-3.43620
20.65000,-3.44146,-3.44956
20.70000,-3.44999,-3.45110
20.75000,-3.45852,-3.46040
20.80000,-3.46666,-3.46696
20.85000,-3.47492,-3.47536
20.90000,-3.48359,-3.47958
20.95000,-3.49172,-3.48901
21.00000,-3.49986,-3.49414
21.05000,-3.50826,-3.50119
21.10000,-3.51666,-3.50791
21.15000,-3.52479,-3.51120
21.20000,-3.53319,-3.52792
21.25000,-3.54172,-3.52086
21.30000,-3.54999,-3.53997
21.35000,-3.55826,-3.54001
21.40000,-3.56679,-3.55091
21.45000,-3.57506,-3.55254
21.50000,-3.58346,-3.56611
21.55000,-3.59186,-3.56564
21.60000,-3.60012,-3.57963
21.65000,-3.60839,-3.57703
21.70000,-3.61679,-3.59587
21.75000,-3.62492,-3.58531
21.80000,-3.63346,-3.61256
21.85000,-3.64172,-3.59803
21.90000,-3.64972,-3.62384
21.95000,-3.65839,-3.60955
22.00000,-3.66666,-3.63848
22.05000,-3.67479,-3.62439
22.10000,-3.68319,-3.64615
22.15000,-3.69186,-3.64121
22.20000,-3.69999,-3.66004
22.25000,-3.70826,-3.65248
22.30000,-3.71692,-3.67083
22.35000,-3.72506,-3.67016
22.40000,-3.73319,-3.67859
22.45000,-3.74172,-3.68137
22.50000,-3.75012,-3.69666
22.55000,-3.75826,-3.68988
22.60000,-3.76652,-3.70653
22.65000,-3.77479,-3.70731
22.70000,-3.78319,-3.71246
22.75000,-3.79146,-3.72226
22.80000,-3.79959,-3.72233
22.85000,-3.80826,-3.73512
22.90000,-3.81666,-3.73508
22.95000,-3.82479,-3.74806
23.00000,-3.83319,-3.74964
23.05000,-3.84186,-3.75489
23.10000,-3.84986,-3.76452
23.15000,-3.85812,-3.77365
23.20000,-3.86679,-3.76765
23.25000,-3.87506,-3.79164
23.30000,-3.88319,-3.77812
23.35000,-3.89159,-3.80266
23.40000,-3.89999,-3.79318
23.45000,-3.90812,-3.81267
23.50000,-3.91652,-3.80468
23.55000,-3.92479,-3.82203
23.60000,-3.93306,-3.81738
23.65000,-3.94146,-3.83436
23.70000,-3.94986,-3.82944
23.75000,-3.95826,-3.84308
23.80000,-3.96666,-3.84599
23.85000,-3.97492,-3.84916
23.90000,-3.98332,-3.86305
23.95000,-3.99186,-3.85945
24.00000,-3.99999,-3.87297
24.05000,-4.00826,-3.87207
24.10000,-4.01679,-3.88304
24.15000,-4.02492,-3.88308
24.20000,-4.03306,-3.89425
24.25000,-4.04146,-3.89455
24.30000,-4.04986,-3.90482
24.35000,-4.05799,-3.90654
24.40000,-4.06639,-3.91122
24.45000,-4.07492,-3.92240
24.50000,-4.08319,-3.92159
24.55000,-4.09146,-3.93318
24.60000,-4.09999,-3.93436
24.65000,-4.10852,-3.94406
24.70000,-4.11679,-3.94343
24.75000,-4.12506,-3.95905
24.80000,-4.13346,-3.95261
24.85000,-4.14186,-3.97008
24.90000,-4.15012,-3.96354
24.95000,-4.15826,-3.97970
25.00000,-4.16679,-3.97646
25.05000,-4.17492,-3.98885
25.10000,-4.18306,-3.98697
25.15000,-4.19159,-4.00074
25.20000,-4.19999,-3.99704
25.25000,-4.20799,-4.01049
25.30000,-4.21652,-4.00928
25.35000,-4.22519,-4.01789
25.40000,-4.23332,-4.02444
25.45000,-4.24159,-4.02714
25.50000,-4.25026,-4.03247
25.55000,-4.25839,-4.03802
25.60000,-4.26666,-4.04558
25.65000,-4.27519,-4.04487
25.70000,-4.28346,-4.05773
25.75000,-4.29172,-4.05618
25.80000,-4.29999,-4.06366
25.85000,-4.30826,-4.06764
25.90000,-4.31679,-4.07410
25.95000,-4.32506,-4.07800
26.00000,-4.33306,-4.08407
26.05000,-4.34172,-4.08555
26.10000,-4.35012,-4.09576
26.15000,-4.35812,-4.09563
26.20000,-4.36652,-4.10497
26.25000,-4.37519,-4.10631
26.30000,-4.38319,-4.11542
26.35000,-4.39146,-4.11479
26.40000,-4.39999,-4.12393
26.45000,-4.40826,-4.12658
26.50000,-4.41652,-4.13378
26.55000,-4.42479,-4.13465
26.60000,-4.43319,-4.14280
26.65000,-4.44132,-4.14410
26.70000,-4.44972,-4.15209
26.75000,-4.45812,-4.15371
26.80000,-4.46652,-4.16147
26.85000,-4.47492,-4.16434
26.90000,-4.48319,-4.17022
26.95000,-4.49172,-4.17398
27.00000,-4.50012,-4.18012
27.05000,-4.50839,-4.18394
27.10000,-4.51666,-4.18845
27.15000,-4.52519,-4.19262
27.20000,-4.53332,-4.19759
27.25000,-4.54159,-4.20088
27.30000,-4.55026,-4.20655
27.35000,-4.55839,-4.21193
27.40000,-4.56652,-4.21407
27.45000,-4.57492,-4.21991
27.50000,-4.58332,-4.22427
27.55000,-4.59146,-4.22813
27.60000,-4.59972,-4.23330
27.65000,-4.60839,-4.23777
27.70000,-4.61666,-4.24365
27.75000,-4.62492,-4.24655
27.80000,-4.63332,-4.25214
27.85000,-4.64172,-4.25624
27.90000,-4.64999,-4.26069
27.95000,-4.65839,-4.26557
28.00000,-4.66679,-4.26952
28.05000,-4.67519,-4.27488
28.10000,-4.68346,-4.27878
28.15000,-4.69159,-4.28257
28.20000,-4.69999,-4.28649
28.25000,-4.70826,-4.29155
28.30000,-4.71639,-4.29392
28.35000,-4.72492,-4.29891
28.40000,-4.73346,-4.30332
28.45000,-4.74145,-4.30738
28.50000,-4.74986,-4.31027
28.55000,-4.75852,-4.31546
28.60000,-4.76666,-4.31933
28.65000,-4.77492,-4.32343
28.70000,-4.78346,-4.32670
28.75000,-4.79172,-4.33038
28.80000,-4.79999,-4.33557
28.85000,-4.80852,-4.33769
28.90000,-4.81679,-4.34164
28.95000,-4.82506,-4.34516
29.00000,-4.83332,-4.34907
29.05000,-4.84172,-4.35136
29.10000,-4.85012,-4.35651
29.15000,-4.85839,-4.35948
29.20000,-4.86652,-4.36263
29.25000,-4.87506,-4.36574
29.30000,-4.88332,-4.36960
29.35000,-4.89145,-4.37310
29.40000,-4.89985,-4.37602
29.45000,-4.90852,-4.37991
29.50000,-4.91665,-4.38495
29.55000,-4.92492,-4.38667
29.60000,-4.93345,-4.39045
29.65000,-4.94172,-4.39431
29.70000,-4.94985,-4.39785
29.75000,-4.95825,-4.40021
29.80000,-4.96652,-4.40491
29.85000,-4.97479,-4.40697
29.90000,-4.98305,-4.41170
29.95000,-4.99159,-4.41391
30.00000,-4.99985,-4.41826
30.05000,-5.00812,-4.42119
30.10000,-5.01652,-4.42505
30.15000,-5.02492,-4.42785
30.20000,-5.03332,-4.43225
30.25000,-5.04159,-4.43572
30.30000,-5.04999,-4.43732
30.35000,-5.05852,-4.44273
30.40000,-5.06665,-4.44625
30.45000,-5.07492,-4.44866
30.50000,-5.08345,-4.45193
30.55000,-5.09159,-4.45559
30.60000,-5.09972,-4.45896
30.65000,-5.10812,-4.46158
30.70000,-5.11665,-4.46600
30.75000,-5.12479,-4.46917
30.80000,-5.13305,-4.47277
30.85000,-5.14172,-4.47614
30.90000,-5.14999,-4.48079
30.95000,-5.15825,-4.48325
31.00000,-5.16679,-4.48780
31.05000,-5.17519,-4.49068
31.10000,-5.18345,-4.49479
31.15000,-5.19185,-4.49829
31.20000,-5.20012,-4.50148
31.25000,-5.20852,-4.50475
31.30000,-5.21679,-4.50852
31.35000,-5.22492,-4.51136
31.40000,-5.23345,-4.51501
31.45000,-5.24172,-4.51790
31.50000,-5.24972,-4.52160
31.55000,-5.25825,-4.52298
31.60000,-5.26665,-4.52976
31.65000,-5.27479,-4.53104
31.70000,-5.28319,-4.53381
31.75000,-5.29185,-4.53667
31.80000,-5.29999,-4.54207
31.85000,-5.30825,-4.54502
31.90000,-5.31692,-4.54706
31.95000,-5.32519,-4.55064
32.00000,-5.33332,-4.55273
32.05000,-5.34172,-4.55607
32.10000,-5.34999,-4.55945
32.15000,-5.35825,-4.56262
32.20000,-5.36665,-4.56691
32.25000,-5.37479,-4.56801
32.30000,-5.38332,-4.57387
32.35000,-5.39159,-4.57310
32.40000,-5.39959,-4.57937
32.45000,-5.40812,-4.57988
32.50000,-5.41665,-4.58563
32.55000,-5.42465,-4.58665
32.60000,-5.43319,-4.59149
32.65000,-5.44172,-4.59268
32.70000,-5.44985,-4.59918
32.75000,-5.45825,-4.59904
32.80000,-5.46679,-4.60534
32.85000,-5.47505,-4.60564
32.90000,-5.48319,-4.61098
32.95000,-5.49159,-4.61106
33.00000,-5.50012,-4.61751
33.05000,-5.50825,-4.61847
33.10000,-5.51652,-4.62321
33.15000,-5.52479,-4.62414
33.20000,-5.53319,-4.62890
33.25000,-5.54145,-4.63137
33.30000,-5.54985,-4.63537
33.35000,-5.55825,-4.63819
33.40000,-5.56665,-4.64331
33.45000,-5.57492,-4.64642
33.50000,-5.58332,-4.64884
33.55000,-5.59185,-4.65395
33.60000,-5.60012,-4.65629
33.65000,-5.60825,-4.65991
33.70000,-5.61679,-4.66354
33.75000,-5.62505,-4.66643
33.80000,-5.63319,-4.66958
33.85000,-5.64159,-4.67285
33.90000,-5.64999,-4.67655
33.95000,-5.65812,-4.67944
34.00000,-5.66639,-4.68295
34.05000,-5.67505,-4.68600
34.10000,-5.68332,-4.68993
34.15000,-5.69159,-4.69370
34.20000,-5.69999,-4.69623
34.25000,-5.70839,-4.70116
34.30000,-5.71665,-4.70249
34.35000,-5.72505,-4.70809
34.40000,-5.73345,-4.71078
34.45000,-5.74185,-4.71464
34.50000,-5.74999,-4.71790
34.55000,-5.75812,-4.71992
34.60000,-5.76679,-4.72348
34.65000,-5.77505,-4.72692
34.70000,-5.78305,-4.73048
34.75000,-5.79159,-4.73268
34.80000,-5.80012,-4.73634
34.85000,-5.80825,-4.74015
34.90000,-5.81665,-4.74301
34.95000,-5.82519,-4.74664
35.00000,-5.83332,-4.74882
35.05000,-5.84172,-4.75362
35.10000,-5.85025,-4.75450
35.15000,-5.85852,-4.75987
35.20000,-5.86665,-4.76156
35.25000,-5.87519,-4.76486
35.30000,-5.88332,-4.76778
35.35000,-5.89172,-4.76973
35.40000,-5.89999,-4.77318
35.45000,-5.90825,-4.77578
35.50000,-5.91665,-4.77935
35.55000,-5.92492,-4.78122
35.60000,-5.93305,-4.78661
35.65000,-5.94159,-4.78472
35.70000,-5.94999,-4.79390
35.75000,-5.95812,-4.79144
35.80000,-5.96652,-4.79847
35.85000,-5.97519,-4.79702
35.90000,-5.98332,-4.80488
35.95000,-5.99159,-4.80234
36.00000,-6.00012,-4.80864
36.05000,-6.00839,-4.80954
36.10000,-6.01652,-4.81412
36.15000,-6.02492,-4.81558
36.20000,-6.03332,-4.81912
36.25000,-6.04145,-4.82365
36.30000,-6.04985,-4.82252
36.35000,-6.05812,-4.83075
36.40000,-6.06639,-4.82781
36.45000,-6.07479,-4.83624
36.50000,-6.08319,-4.83633
36.55000,-6.09172,-4.84241
36.60000,-6.09998,-4.84418
36.65000,-6.10825,-4.84951
36.70000,-6.11665,-4.84898
36.75000,-6.12519,-4.85575
36.80000,-6.13332,-4.85673
36.85000,-6.14158,-4.85908
36.90000,-6.15012,-4.86590
36.95000,-6.15838,-4.86447
37.00000,-6.16652,-4.87165
37.05000,-6.17492,-4.86324
37.10000,-6.18332,-4.88924
37.15000,-6.19145,-4.87043
37.20000,-6.19972,-4.88760
37.25000,-6.20825,-4.87698
37.30000,-6.21652,-4.89401
37.35000,-6.22479,-4.88275
37.40000,-6.23332,-4.90066
37.45000,-6.24172,-4.88973
37.50000,-6.25012,-4.90180
37.55000,-6.25852,-4.90034
37.60000,-6.26678,-4.90780
37.65000,-6.27505,-4.90559
37.70000,-6.28345,-4.91374
37.75000,-6.29145,-4.90927
37.80000,-6.29998,-4.91930
37.85000,-6.30825,-4.91457
37.90000,-6.31638,-4.92559
37.95000,-6.32492,-4.92114
38.00000,-6.33332,-4.93203
38.05000,-6.34145,-4.92307
38.10000,-6.34998,-4.93920
38.15000,-6.35852,-4.92962
38.20000,-6.36665,-4.94371
38.25000,-6.37492,-4.93616
38.30000,-6.38358,-4.94536
38.35000,-6.39172,-4.94434
38.40000,-6.39998,-4.95069
38.45000,-6.40852,-4.94820
38.50000,-6.41678,-4.95731
38.55000,-6.42492,-4.95088
38.60000,-6.43318,-4.96237
38.65000,-6.44145,-4.95503
38.70000,-6.44998,-4.96801
38.75000,-6.45825,-4.96043
38.80000,-6.46652,-4.97263
38.85000,-6.47505,-4.96515
38.90000,-6.48345,-4.97632
38.95000,-6.49158,-4.97267
39.00000,-6.49998,-4.97776
39.05000,-6.50852,-4.97994
39.10000,-6.51665,-4.98167
39.15000,-6.52478,-4.98354
39.20000,-6.53345,-4.98738
39.25000,-6.54172,-4.98838
39.30000,-6.54985,-4.99233
39.35000,-6.55825,-4.99182
39.40000,-6.56665,-4.99638
39.45000,-6.57478,-4.99836
39.50000,-6.58305,-4.99890
39.55000,-6.59158,-5.00244
39.60000,-6.59972,-5.00297
39.65000,-6.60798,-5.00640
39.70000,-6.61652,-5.00732
39.75000,-6.62492,-5.01177
39.80000,-6.63332,-5.01225
39.85000,-6.64158,-5.01790
39.90000,-6.64998,-5.01441
39.95000,-6.65852,-5.02180
40.00000,-6.66665,-5.02012
40.05000,-6.67492,-5.02542
40.10000,-6.68345,-5.02297
40.15000,-6.69172,-5.03045
40.20000,-6.69985,-5.02639
40.25000,-6.70825,-5.03346
40.30000,-6.71665,-5.03072
40.35000,-6.72478,-5.03770
40.40000,-6.73305,-5.03518
40.45000,-6.74172,-5.04136
40.50000,-6.74998,-5.04120
40.55000,-6.75812,-5.04389
40.60000,-6.76665,-5.04606
40.65000,-6.77505,-5.04859
40.70000,-6.78332,-5.04965
40.75000,-6.79158,-5.05268
40.80000,-6.79998,-5.05427
40.85000,-6.80838,-5.05502
40.90000,-6.81665,-5.06008
40.95000,-6.82492,-5.05945
41.00000,-6.83332,-5.06388
41.05000,-6.84158,-5.06346
41.10000,-6.84985,-5.06919
41.15000,-6.85838,-5.06604
41.20000,-6.86678,-5.07452
41.25000,-6.87492,-5.07039
41.30000,-6.88345,-5.07744
41.35000,-6.89185,-5.07551
41.40000,-6.89998,-5.08212
41.45000,-6.90825,-5.07835
41.50000,-6.91692,-5.08585
41.55000,-6.92505,-5.08313
41.60000,-6.93345,-5.08987
41.65000,-6.94185,-5.08706
41.70000,-6.95012,-5.09241
41.75000,-6.95838,-5.09287
41.80000,-6.96665,-5.09560
41.85000,-6.97492,-5.09504
41.90000,-6.98332,-5.09937
41.95000,-6.99172,-5.10066
42.00000,-6.99985,-5.10176
42.05000,-7.00838,-5.10533
42.10000,-7.01665,-5.10440
42.15000,-7.02478,-5.11017
42.20000,-7.03318,-5.10844
42.25000,-7.04172,-5.11344
42.30000,-7.04985,-5.11304
42.35000,-7.05812,-5.11722
42.40000,-7.06678,-5.11546
42.45000,-7.07492,-5.12200
42.50000,-7.08305,-5.11874
42.55000,-7.09145,-5.12412
42.60000,-7.09985,-5.12141
42.65000,-7.10812,-5.12596
42.70000,-7.11652,-5.12750
42.75000,-7.12492,-5.12978
42.80000,-7.13318,-5.13006
42.85000,-7.14145,-5.13457
42.90000,-7.14985,-5.13475
42.95000,-7.15825,-5.13630
43.00000,-7.16665,-5.13950
43.05000,-7.17505,-5.14155
43.10000,-7.18345,-5.14376
43.15000,-7.19172,-5.14353
43.20000,-7.20012,-5.14997
43.25000,-7.20825,-5.14542
43.30000,-7.21678,-5.15366
43.35000,-7.22505,-5.14875
43.40000,-7.23318,-5.15723
43.45000,-7.24158,-5.15220
43.50000,-7.24998,-5.15875
43.55000,-7.25812,-5.15795
43.60000,-7.26638,-5.16261
43.65000,-7.27505,-5.16115
43.70000,-7.28332,-5.16604
43.75000,-7.29158,-5.16585
43.80000,-7.30025,-5.16907
43.85000,-7.30852,-5.17219
43.90000,-7.31665,-5.17128
43.95000,-7.32505,-5.17648
44.00000,-7.33345,-5.17582
44.05000,-7.34172,-5.17825
44.10000,-7.35012,-5.18118
44.15000,-7.35825,-5.18279
44.20000,-7.36665,-5.18369
44.25000,-7.37492,-5.18522
44.30000,-7.38305,-5.18792
44.35000,-7.39158,-5.18804
44.40000,-7.39985,-5.18948
44.45000,-7.40798,-5.19339
44.50000,-7.41652,-5.19289
44.55000,-7.42518,-5.19789
44.60000,-7.43318,-5.19938
44.65000,-7.44158,-5.20008
44.70000,-7.45025,-5.20414
44.75000,-7.45838,-5.20361
44.80000,-7.46665,-5.20749
44.85000,-7.47518,-5.20852
44.90000,-7.48345,-5.21175
44.95000,-7.49158,-5.21217
45.00000,-7.50011,-5.21416
45.05000,-7.50825,-5.21804
45.10000,-7.51665,-5.21588
45.15000,-7.52492,-5.22255
45.20000,-7.53305,-5.22020
45.25000,-7.54171,-5.22537
45.30000,-7.54998,-5.22300
45.35000,-7.55811,-5.22986
45.40000,-7.56651,-5.22665
45.45000,-7.57518,-5.23429
45.50000,-7.58332,-5.23102
45.55000,-7.59158,-5.23818
45.60000,-7.60011,-5.23450
45.65000,-7.60838,-5.24220
45.70000,-7.61651,-5.23697
45.75000,-7.62491,-5.24541
45.80000,-7.63331,-5.24181
45.85000,-7.64145,-5.24688
45.90000,-7.64971,-5.24495
45.95000,-7.65825,-5.25164
46.00000,-7.66638,-5.24740
46.05000,-7.67478,-5.25326
46.10000,-7.68318,-5.25298
46.15000,-7.69171,-5.25700
46.20000,-7.69998,-5.25587
46.25000,-7.70825,-5.26081
46.30000,-7.71678,-5.26003
46.35000,-7.72518,-5.26377
46.40000,-7.73331,-5.26311
46.45000,-7.74158,-5.26615
46.50000,-7.74998,-5.26637
46.55000,-7.75825,-5.26851
46.60000,-7.76638,-5.26835
46.65000,-7.77478,-5.27151
46.70000,-7.78331,-5.27316
46.75000,-7.79145,-5.27458
46.80000,-7.79971,-5.27615
46.85000,-7.80838,-5.27810
46.90000,-7.81665,-5.28028
46.95000,-7.82491,-5.27997
47.00000,-7.83345,-5.28383
47.05000,-7.84171,-5.28430
47.10000,-7.85011,-5.28616
47.15000,-7.85851,-5.28740
47.20000,-7.86678,-5.29017
47.25000,-7.87505,-5.29058
47.30000,-7.88331,-5.29259
47.35000,-7.89158,-5.29381
47.40000,-7.89998,-5.29517
47.45000,-7.90838,-5.29839
47.50000,-7.91651,-5.29809
47.55000,-7.92505,-5.30131
47.60000,-7.93331,-5.30327
47.65000,-7.94145,-5.30369
47.70000,-7.94985,-5.30580
47.75000,-7.95838,-5.30822
47.80000,-7.96665,-5.31081
47.85000,-7.97491,-5.31071
47.90000,-7.98358,-5.31467
47.95000,-7.99171,-5.31673
48.00000,-7.99998,-5.31522
48.05000,-8.00838,-5.31974
48.10000,-8.01678,-5.32086
48.15000,-8.02505,-5.32095
48.20000,-8.03331,-5.32433
48.25000,-8.04171,-5.32526
48.30000,-8.04998,-5.32661
48.35000,-8.05825,-5.32864
48.40000,-8.06638,-5.32905
48.45000,-8.07491,-5.33225
48.50000,-8.08331,-5.33039
48.55000,-8.09145,-5.33639
48.60000,-8.09998,-5.33282
48.65000,-8.10851,-5.33932
48.70000,-8.11665,-5.33777
48.75000,-8.12491,-5.34249
48.80000,-8.13345,-5.33852
48.85000,-8.14158,-5.34567
48.90000,-8.14985,-5.34039
48.95000,-8.15825,-5.34809
49.00000,-8.16665,-5.34286
49.05000,-8.17478,-5.35036
49.10000,-8.18318,-5.34635
49.15000,-8.19158,-5.35195
49.20000,-8.19985,-5.35004
49.25000,-8.20811,-5.35419
49.30000,-8.21651,-5.35388
49.35000,-8.22505,-5.35436
49.40000,-8.23345,-5.35844
49.45000,-8.24171,-5.36011
49.50000,-8.24998,-5.35837
49.55000,-8.25838,-5.36168
49.60000,-8.26678,-5.36444
49.65000,-8.27505,-5.36267
49.70000,-8.28345,-5.36819
49.75000,-8.29185,-5.36715
49.80000,-8.29985,-5.37010
49.85000,-8.30825,-5.36966
49.90000,-8.31665,-5.37209
49.95000,-8.32478,-5.37375
50.00000,-8.33305,-5.37465
50.05000,-8.34171,-5.37937
50.10000,-8.34998,-5.37633
50.15000,-8.35811,-5.38498
50.20000,-8.36665,-5.37680
50.25000,-8.37491,-5.39284
50.30000,-8.38318,-5.37535
50.35000,-8.39158,-5.39753
50.40000,-8.39985,-5.37830
50.45000,-8.40825,-5.39945
50.50000,-8.41651,-5.38349
50.55000,-8.42465,-5.39984
50.60000,-8.43331,-5.38867
50.65000,-8.44158,-5.40321
50.70000,-8.44971,-5.39386
50.75000,-8.45838,-5.40185
50.80000,-8.46665,-5.39956
50.85000,-8.47478,-5.40360
50.90000,-8.48331,-5.40207
50.95000,-8.49185,-5.40524
51.00000,-8.49998,-5.41040
51.05000,-8.50825,-5.40636
51.10000,-8.51691,-5.41148
51.15000,-8.52505,-5.41249
51.20000,-8.53345,-5.41267
51.25000,-8.54185,-5.41568
51.30000,-8.55011,-5.41657
51.35000,-8.55838,-5.41757
51.40000,-8.56665,-5.41863
51.45000,-8.57491,-5.42252
51.50000,-8.58345,-5.42278
51.55000,-8.59171,-5.42500
51.60000,-8.59985,-5.42738
51.65000,-8.60838,-5.42492
51.70000,-8.61678,-5.43353
51.75000,-8.62491,-5.42774
51.80000,-8.63331,-5.43529
51.85000,-8.64185,-5.43508
51.90000,-8.64998,-5.43474
51.95000,-8.65825,-5.44165
52.00000,-8.66678,-5.43675
52.05000,-8.67491,-5.44529
52.10000,-8.68318,-5.44024
52.15000,-8.69158,-5.44698
52.20000,-8.69998,-5.44529
52.25000,-8.70811,-5.45008
52.30000,-8.71638,-5.45059
52.35000,-8.72491,-5.44609
52.40000,-8.73318,-5.45901
52.45000,-8.74145,-5.44651
52.50000,-8.74985,-5.46438
52.55000,-8.75825,-5.44935
52.60000,-8.76665,-5.46480
52.65000,-8.77491,-5.45627
52.70000,-8.78331,-5.46772
52.75000,-8.79171,-5.45834
52.80000,-8.79998,-5.47110
52.85000,-8.80811,-5.46181
52.90000,-8.81678,-5.47377
52.95000,-8.82505,-5.46516
53.00000,-8.83318,-5.47519
53.05000,-8.84158,-5.46866
53.10000,-8.84998,-5.47685
53.15000,-8.85811,-5.47254
53.20000,-8.86651,-5.47832
53.25000,-8.87504,-5.47588
53.30000,-8.88331,-5.48256
53.35000,-8.89158,-5.47855
53.40000,-8.90011,-5.48727
53.45000,-8.90851,-5.48093
53.50000,-8.91678,-5.48989
53.55000,-8.92504,-5.48545
53.60000,-8.93345,-5.49342
53.65000,-8.94185,-5.48643
53.70000,-8.95011,-5.49979
53.75000,-8.95824,-5.48824
53.80000,-8.96678,-5.50300
53.85000,-8.97504,-5.49014
53.90000,-8.98318,-5.50613
53.95000,-8.99158,-5.49417
54.00000,-8.99998,-5.50676
54.05000,-9.00811,-5.49883
54.10000,-9.01651,-5.50902
54.15000,-9.02518,-5.50264
54.20000,-9.03331,-5.51357
54.25000,-9.04158,-5.50544
54.30000,-9.05011,-5.51559
54.35000,-9.05838,-5.51102
54.40000,-9.06651,-5.51691
54.45000,-9.07491,-5.51439
54.50000,-9.08331,-5.51991
54.55000,-9.09158,-5.51785
54.60000,-9.09998,-5.52066
54.65000,-9.10824,-5.52320
54.70000,-9.11678,-5.52163
54.75000,-9.12504,-5.52735
54.80000,-9.13304,-5.52128
54.85000,-9.14158,-5.53011
54.90000,-9.15011,-5.52559
54.95000,-9.15811,-5.53205
55.00000,-9.16664,-5.52825
55.05000,-9.17518,-5.53440
55.10000,-9.18318,-5.53236
55.15000,-9.19144,-5.53503
55.20000,-9.20011,-5.53533
55.25000,-9.20838,-5.53794
55.30000,-9.21664,-5.53877
55.35000,-9.22491,-5.53974
55.40000,-9.23331,-5.53984
55.45000,-9.24144,-5.54087
55.50000,-9.24971,-5.54155
55.55000,-9.25824,-5.54223
55.60000,-9.26651,-5.54548
55.65000,-9.27478,-5.54268
55.70000,-9.28318,-5.54905
55.75000,-9.29171,-5.54357
55.80000,-9.29998,-5.55132
55.85000,-9.30824,-5.54649
55.90000,-9.31664,-5.55027
55.95000,-9.32518,-5.54809
56.00000,-9.33331,-5.55373
56.05000,-9.34158,-5.54789
56.10000,-9.35011,-5.55316
56.15000,-9.35838,-5.55183
56.20000,-9.36651,-5.55393
56.25000,-9.37491,-5.55324
56.30000,-9.38331,-5.55499
56.35000,-9.39131,-5.55648
56.40000,-9.39971,-5.55533
56.45000,-9.40838,-5.55804
56.50000,-9.41664,-5.55869
56.55000,-9.42491,-5.56124
56.60000,-9.43344,-5.56033
56.65000,-9.44171,-5.56492
56.70000,-9.45011,-5.56310
56.75000,-9.45838,-5.56530
56.80000,-9.46678,-5.56680
56.85000,-9.47518,-5.56730
56.90000,-9.48344,-5.56878
56.95000,-9.49158,-5.56888
57.00000,-9.50011,-5.56945
57.05000,-9.50838,-5.57065
57.10000,-9.51638,-5.57124
57.15000,-9.52491,-5.57176
57.20000,-9.53331,-5.57470
57.25000,-9.54144,-5.57310
57.30000,-9.54984,-5.57788
57.35000,-9.55851,-5.57541
57.40000,-9.56664,-5.58026
57.45000,-9.57478,-5.57693
57.50000,-9.58344,-5.58156
57.55000,-9.59171,-5.58028
57.60000,-9.59998,-5.58270
57.65000,-9.60838,-5.58246
57.70000,-9.61678,-5.58407
57.75000,-9.62491,-5.58529
57.80000,-9.63331,-5.58651
57.85000,-9.64171,-5.58671
57.90000,-9.65011,-5.58954
57.95000,-9.65838,-5.58748
58.00000,-9.66638,-5.59099
58.05000,-9.67504,-5.58822
58.10000,-9.68331,-5.59257
58.15000,-9.69144,-5.59017
58.20000,-9.69984,-5.59478
58.25000,-9.70851,-5.59074
58.30000,-9.71664,-5.59815
58.35000,-9.72491,-5.59246
58.40000,-9.73344,-5.59852
58.45000,-9.74158,-5.59529
58.50000,-9.74971,-5.59973
58.55000,-9.75811,-5.59509
58.60000,-9.76664,-5.60119
58.65000,-9.77478,-5.59753
58.70000,-9.78318,-5.60278
58.75000,-9.79158,-5.59779
58.80000,-9.79984,-5.60425
58.85000,-9.80811,-5.59851
58.90000,-9.81651,-5.60512
58.95000,-9.82491,-5.60056
59.00000,-9.83331,-5.60552
59.05000,-9.84158,-5.60331
59.10000,-9.84998,-5.60631
59.15000,-9.85851,-5.60549
59.20000,-9.86664,-5.60803
59.25000,-9.87491,-5.60759
59.30000,-9.88344,-5.60840
59.35000,-9.89171,-5.61034
59.40000,-9.89984,-5.61041
59.45000,-9.90824,-5.61037
59.50000,-9.91678,-5.61229
59.55000,-9.92491,-5.61240
59.60000,-9.93304,-5.61225
59.65000,-9.94158,-5.61401
59.70000,-9.94998,-5.61491
59.75000,-9.95824,-5.61635
59.80000,-9.96678,-5.61642
59.85000,-9.97504,-5.61831
59.90000,-9.98344,-5.61832
59.95000,-9.99184,-5.62077
60.00000,-10.00011,-5.61931
60.05000,-10.00864,-5.62268
60.10000,-10.01678,-5.62157
60.15000,-10.02491,-5.62321
60.20000,-10.03358,-5.62261
60.25000,-10.04171,-5.62658
60.30000,-10.04971,-5.62442
60.35000,-10.05824,-5.62493
60.40000,-10.06664,-5.62948
60.45000,-10.07478,-5.62498
60.50000,-10.08331,-5.63039
60.55000,-10.09184,-5.62748
60.60000,-10.09998,-5.63277
60.65000,-10.10824,-5.63111
60.70000,-10.11678,-5.63506
60.75000,-10.12504,-5.63461
60.80000,-10.13344,-5.63430
60.85000,-10.14184,-5.63737
60.90000,-10.15011,-5.63645
60.95000,-10.15837,-5.63883
61.00000,-10.16678,-5.63938
61.05000,-10.17491,-5.63972
61.10000,-10.18331,-5.64005
61.15000,-10.19158,-5.64095
61.20000,-10.19971,-5.64144
61.25000,-10.20824,-5.64322
61.30000,-10.21678,-5.64552
61.35000,-10.22478,-5.64721
61.40000,-10.23318,-5.64673
61.45000,-10.24184,-5.64908
61.50000,-10.24998,-5.65065
61.55000,-10.25824,-5.65200
61.60000,-10.26678,-5.65213
61.65000,-10.27504,-5.65570
61.70000,-10.28331,-5.65386
61.75000,-10.29171,-5.65551
61.80000,-10.30011,-5.65653
61.85000,-10.30837,-5.65690
61.90000,-10.31651,-5.65865
61.95000,-10.32491,-5.65869
62.00000,-10.33317,-5.65896
62.05000,-10.34144,-5.66047
62.10000,-10.34984,-5.66196
62.15000,-10.35824,-5.66185
62.20000,-10.36664,-5.66417
62.25000,-10.37504,-5.66474
62.30000,-10.38331,-5.66459
62.35000,-10.39184,-5.66647
62.40000,-10.39997,-5.66712
62.45000,-10.40811,-5.66714
62.50000,-10.41678,-5.66736
62.55000,-10.42504,-5.66880
62.60000,-10.43317,-5.66817
62.65000,-10.44171,-5.66889
62.70000,-10.45011,-5.67080
62.75000,-10.45824,-5.67064
62.80000,-10.46651,-5.67036
62.85000,-10.47504,-5.67123
62.90000,-10.48331,-5.67231
62.95000,-10.49157,-5.67226
63.00000,-10.49997,-5.67346
63.05000,-10.50837,-5.67358
63.10000,-10.51677,-5.67465
63.15000,-10.52517,-5.67565
63.20000,-10.53344,-5.67616
63.25000,-10.54184,-5.67696
63.30000,-10.55011,-5.67788
63.35000,-10.55824,-5.67712
63.40000,-10.56677,-5.67804
63.45000,-10.57504,-5.67908
63.50000,-10.58317,-5.67950
63.55000,-10.59171,-5.68034
63.60000,-10.60011,-5.68174
63.65000,-10.60811,-5.68171
63.70000,-10.61664,-5.68282
63.75000,-10.62531,-5.68446
63.80000,-10.63331,-5.68607
63.85000,-10.64171,-5.68532
63.90000,-10.65024,-5.68689
63.95000,-10.65851,-5.68727
64.00000,-10.66664,-5.68772
64.05000,-10.67504,-5.68721
64.10001,-10.68344,-5.68956
64.15000,-10.69171,-5.68899
64.20000,-10.69997,-5.69120
64.25000,-10.70824,-5.69070
64.30000,-10.71677,-5.69218
64.35001,-10.72504,-5.69303
64.40000,-10.73304,-5.69362
64.45000,-10.74171,-5.69302
64.50000,-10.75011,-5.69576
64.55000,-10.75824,-5.69605
64.60001,-10.76651,-5.69627
64.65000,-10.77504,-5.69678
64.70000,-10.78317,-5.69797
64.75000,-10.79157,-5.69717
64.80000,-10.80011,-5.69885
64.85001,-10.80837,-5.70020
64.90000,-10.81651,-5.70040
64.95000,-10.82491,-5.70017
65.00000,-10.83331,-5.70235
65.05000,-10.84144,-5.70089
65.10001,-10.84971,-5.70320
65.15000,-10.85824,-5.70291
65.20000,-10.86651,-5.70453
65.25000,-10.87477,-5.70528
65.30000,-10.88317,-5.70692
65.35001,-10.89171,-5.70791
65.40000,-10.89997,-5.70928
65.45000,-10.90824,-5.71081
65.50000,-10.91664,-5.71058
65.55000,-10.92517,-5.71191
65.60001,-10.93344,-5.71324
65.65000,-10.94171,-5.71247
65.70001,-10.95024,-5.71454
65.75000,-10.95837,-5.71467
65.80000,-10.96651,-5.71520
65.85001,-10.97491,-5.71574
65.90000,-10.98344,-5.71720
65.95001,-10.99144,-5.71754
66.00000,-10.99984,-5.71800
66.05000,-11.00851,-5.71997
66.10001,-11.01664,-5.72028
66.15000,-11.02491,-5.72156
66.20001,-11.03344,-5.72243
66.25000,-11.04184,-5.72331
66.30000,-11.04997,-5.72368
66.35001,-11.05824,-5.72424
66.40000,-11.06651,-5.72416
66.45001,-11.07504,-5.72510
66.50000,-11.08331,-5.72705
66.55000,-11.09144,-5.72589
66.60001,-11.10011,-5.72727
66.65000,-11.10837,-5.72772
66.70001,-11.11651,-5.72874
66.75000,-11.12504,-5.72733
66.80000,-11.13331,-5.72910
66.85001,-11.14144,-5.72830
66.90000,-11.14997,-5.72908
66.95001,-11.15851,-5.73055
67.00000,-11.16677,-5.73210
67.05000,-11.17491,-5.73200
67.10001,-11.18357,-5.73314
67.15000,-11.19184,-5.73322
67.20001,-11.20011,-5.73412
67.25000,-11.20837,-5.73334
67.30000,-11.21677,-5.73431
67.35001,-11.22504,-5.73377
67.40000,-11.23331,-5.73512
67.45001,-11.24157,-5.73465
67.50000,-11.25011,-5.73574
67.55000,-11.25837,-5.73639
67.60001,-11.26651,-5.73658
67.65000,-11.27504,-5.73595
67.70001,-11.28357,-5.73795
67.75000,-11.29157,-5.73787
67.80000,-11.30011,-5.73737
67.85001,-11.30864,-5.73902
67.90000,-11.31677,-5.73998
67.95001,-11.32491,-5.73937
68.00000,-11.33344,-5.73974
68.05000,-11.34171,-5.74117
68.10001,-11.34997,-5.74128
68.15000,-11.35824,-5.74150
68.20001,-11.36677,-5.74295
68.25000,-11.37491,-5.74285
68.30000,-11.38317,-5.74377
68.35001,-11.39144,-5.74321
68.40000,-11.39971,-5.74406
68.45001,-11.40811,-5.74508
68.50000,-11.41664,-5.74597
68.55000,-11.42504,-5.74717
68.60001,-11.43344,-5.74791
68.65000,-11.44171,-5.74951
68.70001,-11.44997,-5.74872
68.75000,-11.45864,-5.75017
68.80000,-11.46677,-5.75286
68.85001,-11.47491,-5.75195
68.90000,-11.48344,-5.75346
68.95001,-11.49184,-5.75511
69.00000,-11.49984,-5.75588
69.05000,-11.50824,-5.75644
69.10001,-11.51677,-5.75902
69.15000,-11.52477,-5.76042
69.20001,-11.53317,-5.76178
69.25000,-11.54184,-5.76437
69.30000,-11.55011,-5.76660
69.35001,-11.55837,-5.76841
69.40000,-11.56677,-5.77048
69.45001,-11.57517,-5.77261
69.50000,-11.58344,-5.77468
69.55000,-11.59184,-5.77744
69.60001,-11.60011,-5.77885
69.65000,-11.60850,-5.78150
69.70001,-11.61664,-5.78424
69.75000,-11.62491,-5.78514
69.80000,-11.63344,-5.78798
69.85001,-11.64171,-5.79015
69.90000,-11.64984,-5.79246
69.95001,-11.65837,-5.79396
70.00000,-11.66664,-5.79648
70.05000,-11.67477,-5.79889
70.10001,-11.68330,-5.80140
70.15000,-11.69197,-5.80360
70.20001,-11.69984,-5.80611
70.25000,-11.70824,-5.80730
70.30000,-11.71677,-5.80950
70.35001,-11.72504,-5.81169
70.40000,-11.73330,-5.81406
70.45001,-11.74184,-5.81583
70.50000,-11.75010,-5.81890
70.55000,-11.75837,-5.81945
70.60001,-11.76677,-5.82247
70.65000,-11.77517,-5.82430
70.70001,-11.78371,-5.82802
70.75000,-11.79184,-5.83079
70.80000,-11.79984,-5.83162
70.85001,-11.80837,-5.83413
70.90000,-11.81677,-5.83677
70.95001,-11.82490,-5.84049
71.00000,-11.83330,-5.84180
71.05000,-11.84184,-5.84620
71.10001,-11.84997,-5.84876
71.15000,-11.85824,-5.85118
71.20001,-11.86690,-5.85409
71.25000,-11.87504,-5.85801
71.30000,-11.88317,-5.85933
71.35001,-11.89157,-5.86180
71.40000,-11.89997,-5.86480
71.45001,-11.90810,-5.86677
71.50000,-11.91637,-5.86960
71.55000,-11.92477,-5.87412
71.60001,-11.93317,-5.87584
71.65000,-11.94144,-5.87993
71.70001,-11.94984,-5.88256
71.75000,-11.95824,-5.88515
71.80000,-11.96664,-5.88799
71.85001,-11.97477,-5.89165
71.90000,-11.98330,-5.89252
71.95001,-11.99170,-5.89745
72.00000,-11.99997,-5.90109
72.05000,-12.00824,-5.90309
72.10001,-12.01690,-5.90602
72.15000,-12.02504,-5.90999
72.20001,-12.03317,-5.91092
72.25000,-12.04157,-5.91354
72.30000,-12.04997,-5.91732
72.35001,-12.05810,-5.91975
72.40000,-12.06637,-5.92215
72.45001,-12.07517,-5.92650
72.50000,-12.08344,-5.93138
72.55000,-12.09184,-5.93448
72.60001,-12.10024,-5.93784
72.65000,-12.10850,-5.94120
72.70001,-12.11677,-5.94405
72.75000,-12.12517,-5.94722
72.80000,-12.13344,-5.94993
72.85001,-12.14184,-5.95361
72.90000,-12.15024,-5.95767
72.95001,-12.15824,-5.95794
73.00000,-12.16677,-5.96292
73.05000,-12.17504,-5.96486
73.10001,-12.18317,-5.96933
73.15000,-12.19170,-5.97018
73.20001,-12.19997,-5.97625
73.25000,-12.20810,-5.97710
73.30000,-12.21664,-5.98101
73.35001,-12.22517,-5.98377
73.40000,-12.23330,-5.98761
73.45001,-12.24157,-5.98850
73.50000,-12.25024,-5.99178
73.55000,-12.25850,-5.99561
73.60001,-12.26677,-5.99806
73.65000,-12.27517,-6.00137
73.70001,-12.28344,-6.00437
73.75000,-12.29170,-6.00756
73.80000,-12.30010,-6.01062
73.85001,-12.30824,-6.01285
73.90000,-12.31677,-6.01633
73.95001,-12.32490,-6.01987
74.00000,-12.33304,-6.02210
74.05000,-12.34157,-6.02331
74.10001,-12.34997,-6.02907
74.15000,-12.35824,-6.03146
74.20001,-12.36664,-6.03350
74.25000,-12.37517,-6.03656
74.30000,-12.38330,-6.03953
74.35001,-12.39144,-6.04199
74.40000,-12.40010,-6.04320
74.45001,-12.40837,-6.04953
74.50000,-12.41650,-6.05092
74.55000,-12.42504,-6.05339
74.60001,-12.43330,-6.05619
74.65000,-12.44157,-6.05925
74.70001,-12.44984,-6.06195
74.75000,-12.45824,-6.06380
74.80000,-12.46650,-6.06648
74.85001,-12.47477,-6.06931
74.90000,-12.48317,-6.07275
74.95001,-12.49170,-6.07470
75.00000,-12.50010,-6.07933
75.05000,-12.50837,-6.08323
75.10001,-12.51677,-6.08433
75.15000,-12.52530,-6.08793
75.20001,-12.53344,-6.09031
75.25000,-12.54170,-6.09212
75.30000,-12.55010,-6.09327
75.35001,-12.55837,-6.09711
75.40000,-12.56650,-6.09881
75.45001,-12.57504,-6.10107
75.50000,-12.58330,-6.10510
75.55000,-12.59144,-6.10578
75.60001,-12.59970,-6.11003
75.65000,-12.60850,-6.11285
75.70001,-12.61664,-6.11614
75.75000,-12.62504,-6.11898
75.80000,-12.63357,-6.12296
75.85001,-12.64170,-6.12454
75.90000,-12.65010,-6.12803
75.95001,-12.65850,-6.13180
76.00000,-12.66677,-6.13448
76.05000,-12.67517,-6.13787
76.10001,-12.68344,-6.14118
76.15000,-12.69170,-6.14527
76.20001,-12.70024,-6.14815
76.25000,-12.70837,-6.15180
76.30000,-12.71650,-6.15389
76.35001,-12.72490,-6.15719
76.40000,-12.73330,-6.16158
76.45001,-12.74144,-6.16340
76.50000,-12.74997,-6.16738
76.55000,-12.75850,-6.17315
76.60001,-12.76664,-6.17458
76.65000,-12.77490,-6.17707
76.70001,-12.78357,-6.17997
76.75000,-12.79170,-6.18443
76.80000,-12.79997,-6.18426
76.85001,-12.80850,-6.18953
76.90000,-12.81677,-6.19222
76.95001,-12.82504,-6.19463
77.00000,-12.83344,-6.19746
77.05000,-12.84170,-6.20094
77.10001,-12.84997,-6.20358
77.15000,-12.85837,-6.20674
77.20001,-12.86650,-6.20915
77.25000,-12.87504,-6.21353
77.30000,-12.88330,-6.21643
77.35001,-12.89157,-6.22205
77.40000,-12.89997,-6.22248
77.45001,-12.90850,-6.22986
77.50000,-12.91663,-6.23244
77.55000,-12.92490,-6.23518
77.60001,-12.93357,-6.23817
77.65000,-12.94170,-6.24419
77.70001,-12.94997,-6.24538
77.75000,-12.95837,-6.24839
77.80000,-12.96677,-6.25371
77.85001,-12.97490,-6.25684
77.90000,-12.98317,-6.26035
77.95001,-12.99143,-6.26136
78.00000,-12.99970,-6.26851
78.05000,-13.00810,-6.27129
78.10001,-13.01650,-6.27555
78.15000,-13.02490,-6.28194
78.20001,-13.03330,-6.28647
78.25000,-13.04157,-6.29072
78.30000,-13.04997,-6.29370
78.35001,-13.05823,-6.30044
78.40000,-13.06663,-6.30481
78.45001,-13.07490,-6.30845
78.50000,-13.08343,-6.31314
78.55000,-13.09170,-6.31828
78.60001,-13.09983,-6.32209
78.65000,-13.10823,-6.32494
78.70001,-13.11663,-6.33096
78.75000,-13.12490,-6.33343
78.80000,-13.13317,-6.33744
78.85001,-13.14170,-6.34279
78.90000,-13.14997,-6.34571
78.95001,-13.15823,-6.35036
79.00000,-13.16677,-6.35496
79.05000,-13.17503,-6.35874
79.10001,-13.18343,-6.36376
79.15000,-13.19183,-6.36813
79.20001,-13.20010,-6.37099
79.25000,-13.20850,-6.37505
79.30000,-13.21677,-6.37841
79.35001,-13.22490,-6.38297
79.40000,-13.23343,-6.38541
79.45001,-13.24170,-6.39097
79.50000,-13.24970,-6.39404
79.55000,-13.25837,-6.39768
79.60001,-13.26663,-6.40210
79.65000,-13.27490,-6.40562
79.70001,-13.28330,-6.40858
79.75000,-13.29183,-6.41344
79.80000,-13.29997,-6.41617
79.85001,-13.30823,-6.41977
79.90000,-13.31690,-6.42358
79.95001,-13.32503,-6.42877
80.00000,-13.33330,-6.43044
80.05000,-13.34183,-6.43630
80.10001,-13.35010,-6.43907
80.15000,-13.35837,-6.44272
80.20001,-13.36663,-6.44536
80.25000,-13.37490,-6.44872
80.30000,-13.38330,-6.45158
80.35001,-13.39170,-6.45756
80.40000,-13.39970,-6.45852
80.45001,-13.40837,-6.46323
80.50001,-13.41677,-6.46601
80.55000,-13.42490,-6.47128
80.60001,-13.43330,-6.47237
80.65000,-13.44183,-6.47754
80.70001,-13.44997,-6.48102
80.75001,-13.45823,-6.48439
80.80000,-13.46690,-6.48661
80.85001,-13.47503,-6.49275
80.90000,-13.48317,-6.49370
80.95001,-13.49143,-6.49773
81.00001,-13.49983,-6.49999
81.05000,-13.50810,-6.50439
81.10001,-13.51650,-6.50756
81.15000,-13.52503,-6.51282
81.20001,-13.53317,-6.51460
81.25001,-13.54143,-6.51875
81.30000,-13.54970,-6.52221
81.35001,-13.55823,-6.52534
81.40000,-13.56663,-6.52929
81.45001,-13.57490,-6.53451
81.50001,-13.58330,-6.53564
81.55000,-13.59183,-6.54149
81.60001,-13.60010,-6.54444
81.65000,-13.60823,-6.54836
81.70001,-13.61690,-6.55056
81.75001,-13.62517,-6.55720
81.80000,-13.63330,-6.55779
81.85001,-13.64170,-6.56148
81.90000,-13.64997,-6.56659
81.95001,-13.65810,-6.56861
82.00001,-13.66650,-6.57223
82.05000,-13.67503,-6.57779
82.10001,-13.68330,-6.58323
82.15000,-13.69170,-6.58652
82.20001,-13.70010,-6.59131
82.25001,-13.70850,-6.59605
82.30000,-13.71663,-6.59892
82.35001,-13.72503,-6.60392
82.40000,-13.73343,-6.60714
82.45001,-13.74183,-6.61336
82.50001,-13.75010,-6.61643
82.55000,-13.75837,-6.62129
82.60001,-13.76690,-6.62457
82.65000,-13.77503,-6.62999
82.70001,-13.78317,-6.63204
82.75001,-13.79170,-6.63604
82.80000,-13.80010,-6.64096
82.85001,-13.80810,-6.64579
82.90000,-13.81663,-6.64780
82.95001,-13.82517,-6.65417
83.00001,-13.83343,-6.65828
83.05000,-13.84170,-6.66214
83.10001,-13.85023,-6.66603
83.15000,-13.85850,-6.67176
83.20001,-13.86677,-6.67361
83.25001,-13.87517,-6.68011
83.30000,-13.88357,-6.68317
83.35001,-13.89183,-6.68905
83.40000,-13.90010,-6.69204
83.45001,-13.90837,-6.69688
83.50001,-13.91677,-6.69972
83.55000,-13.92517,-6.70622
83.60001,-13.93317,-6.70956
83.65000,-13.94170,-6.71475
83.70001,-13.95010,-6.71913
83.75001,-13.95823,-6.72497
83.80000,-13.96663,-6.72796
83.85001,-13.97517,-6.73435
83.90000,-13.98330,-6.73741
83.95001,-13.99170,-6.74320
84.00001,-14.00023,-6.74595
84.05000,-14.00837,-6.75302
84.10001,-14.01650,-6.75486
84.15000,-14.02490,-6.76097
84.20001,-14.03317,-6.76381
84.25001,-14.04143,-6.76763
84.30000,-14.04970,-6.77202
84.35001,-14.05810,-6.77672
84.40000,-14.06637,-6.77959
84.45001,-14.07477,-6.78545
84.50001,-14.08317,-6.79045
84.55000,-14.09157,-6.79492
84.60001,-14.09983,-6.79959
84.65000,-14.10810,-6.80533
84.70001,-14.11650,-6.80806
84.75001,-14.12503,-6.81477
84.80000,-14.13330,-6.81952
84.85001,-14.14157,-6.82315
84.90000,-14.15010,-6.82779
84.95001,-14.15837,-6.83396
85.00001,-14.16650,-6.83692
85.05000,-14.17503,-6.84207
85.10001,-14.18343,-6.84805
85.15000,-14.19157,-6.85175
85.20001,-14.19983,-6.85545
85.25001,-14.20850,-6.86166
85.30000,-14.21663,-6.86622
85.35001,-14.22490,-6.87090
85.40000,-14.23356,-6.87559
85.45001,-14.24197,-6.88166
85.50001,-14.25010,-6.88504
85.55000,-14.25850,-6.89036
85.60001,-14.26690,-6.89355
85.65000,-14.27530,-6.89924
85.70001,-14.28356,-6.90396
85.75001,-14.29156,-6.90703
85.80000,-14.30010,-6.91233
85.85001,-14.30837,-6.91680
85.90000,-14.31650,-6.92105
85.95001,-14.32503,-6.92501
86.00001,-14.33330,-6.93022
86.05000,-14.34143,-6.93314
86.10001,-14.34997,-6.93896
86.15000,-14.35850,-6.94558
86.20001,-14.36663,-6.94946
86.25001,-14.37490,-6.95306
86.30000,-14.38343,-6.95895
86.35001,-14.39156,-6.96420
86.40000,-14.39996,-6.96811
86.45001,-14.40850,-6.97428
86.50001,-14.41690,-6.97974
86.55000,-14.42503,-6.98303
86.60001,-14.43343,-6.98822
86.65000,-14.44170,-6.99223
86.70001,-14.44996,-6.99600
86.75001,-14.45836,-7.00084
86.80000,-14.46636,-7.00518
86.85001,-14.47476,-7.00820
86.90000,-14.48330,-7.01462
86.95001,-14.49130,-7.01890
87.00001,-14.49983,-7.02315
87.05000,-14.50850,-7.02979
87.10001,-14.51663,-7.03553
87.15000,-14.52490,-7.03856
87.20001,-14.53343,-7.04161
87.25001,-14.54170,-7.04944
87.30000,-14.54996,-7.05163
87.35001,-14.55823,-7.05739
87.40000,-14.56663,-7.06099
87.45001,-14.57490,-7.06655
87.50001,-14.58316,-7.07050
87.55000,-14.59156,-7.07643
87.60001,-14.59983,-7.08077
87.65000,-14.60823,-7.08558
87.70001,-14.61650,-7.09059
87.75001,-14.62503,-7.09418
87.80000,-14.63343,-7.10093
87.85001,-14.64170,-7.10583
87.90000,-14.64996,-7.10906
87.95001,-14.65836,-7.11457
88.00001,-14.66663,-7.11991
88.05000,-14.67490,-7.12343
88.10001,-14.68356,-7.12853
88.15000,-14.69170,-7.13449
88.20001,-14.69983,-7.13736
88.25001,-14.70823,-7.14133
88.30000,-14.71676,-7.14808
88.35001,-14.72490,-7.15176
88.40000,-14.73316,-7.15572
88.45001,-14.74183,-7.16161
88.50001,-14.74996,-7.16642
88.55000,-14.75836,-7.17086
88.60001,-14.76676,-7.17571
88.65000,-14.77503,-7.18067
88.70001,-14.78343,-7.18584
88.75001,-14.79183,-7.19069
88.80000,-14.80010,-7.19600
88.85001,-14.80836,-7.19820
88.90000,-14.81676,-7.20706
88.95001,-14.82476,-7.20780
89.00001,-14.83343,-7.21523
89.05000,-14.84170,-7.21927
89.10001,-14.84983,-7.22436
89.15000,-14.85836,-7.22708
89.20001,-14.86676,-7.23677
89.25001,-14.87476,-7.23841
89.30000,-14.88330,-7.24490
89.35001,-14.89183,-7.24929
89.40000,-14.89996,-7.25861
89.45001,-14.90836,-7.26091
89.50001,-14.91690,-7.26810
89.55000,-14.92516,-7.27266
89.60001,-14.93343,-7.27619
89.65000,-14.94183,-7.28382
89.70001,-14.95010,-7.28624
89.75001,-14.95836,-7.29274
89.80000,-14.96663,-7.29677
89.85001,-14.97490,-7.30225
89.90000,-14.98330,-7.30496
89.95001,-14.99156,-7.31387
90.00001,-14.99970,-7.31542
90.05000,-15.00836,-7.32246
90.10001,-15.01663,-7.32583
90.15000,-15.02476,-7.33194
90.20001,-15.03330,-7.33353
90.25001,-15.04183,-7.34360
90.30000,-15.04983,-7.34436
90.35001,-15.05810,-7.35273
90.36601,-15.06090,-7.35296
