Time,Extension,Load
(sec),(mm),(N)
0.00000,0.00000,-0.20209
0.05000,-0.00107,-0.20032
0.10000,-0.00533,-0.20502
0.15000,-0.01413,-0.21356
0.20000,-0.02493,-0.22803
0.25000,-0.03547,-0.24041
0.30000,-0.04533,-0.25278
0.35000,-0.05467,-0.26277
0.40000,-0.06387,-0.27425
0.45000,-0.07307,-0.28302
0.50000,-0.08160,-0.29297
0.55000,-0.09027,-0.30076
0.60000,-0.09907,-0.31134
0.65000,-0.10733,-0.31782
0.70000,-0.11573,-0.32799
0.75000,-0.12453,-0.33537
0.80000,-0.13293,-0.34592
0.85000,-0.14133,-0.35255
0.90000,-0.15000,-0.36282
0.95000,-0.15827,-0.37069
1.00000,-0.16653,-0.37986
1.05000,-0.17493,-0.38725
1.10000,-0.18333,-0.39630
1.15000,-0.19173,-0.40470
1.20000,-0.20013,-0.41377
1.25000,-0.20827,-0.42148
1.30000,-0.21680,-0.43091
1.35000,-0.22507,-0.43984
1.40000,-0.23307,-0.44793
1.45000,-0.24160,-0.45597
1.50000,-0.25000,-0.46632
1.55000,-0.25800,-0.47395
1.60000,-0.26640,-0.48282
1.65000,-0.27507,-0.49182
1.70000,-0.28333,-0.50191
1.75000,-0.29147,-0.50937
1.80000,-0.30000,-0.51876
1.85000,-0.30827,-0.52757
1.90000,-0.31653,-0.53833
1.95000,-0.32507,-0.54458
2.00000,-0.33347,-0.55588
2.05000,-0.34173,-0.56358
2.10000,-0.34987,-0.57556
2.15000,-0.35827,-0.58086
2.20000,-0.36667,-0.59352
2.25000,-0.37493,-0.59956
2.30000,-0.38307,-0.61244
2.35000,-0.39160,-0.61777
2.40000,-0.40000,-0.63111
2.45000,-0.40827,-0.63731
2.50000,-0.41653,-0.64991
2.55000,-0.42507,-0.65549
2.60000,-0.43333,-0.66899
2.65000,-0.44160,-0.67477
2.70000,-0.45013,-0.68757
2.75000,-0.45840,-0.69438
2.80000,-0.46653,-0.70691
2.85000,-0.47480,-0.71340
2.90000,-0.48320,-0.72596
2.95000,-0.49147,-0.73204
3.00000,-0.49987,-0.74489
3.05000,-0.50827,-0.75252
3.10000,-0.51640,-0.76372
3.15000,-0.52467,-0.77205
3.20000,-0.53307,-0.78340
3.25000,-0.54160,-0.79247
3.30000,-0.55000,-0.80268
3.35000,-0.55827,-0.81271
3.40000,-0.56653,-0.82296
3.45000,-0.57507,-0.83264
3.50000,-0.58333,-0.84305
3.55000,-0.59147,-0.85224
3.60000,-0.60000,-0.86266
3.65000,-0.60827,-0.87239
3.70000,-0.61640,-0.88238
3.75000,-0.62480,-0.89213
3.80000,-0.63320,-0.90287
3.85000,-0.64120,-0.91193
3.90000,-0.64960,-0.92263
3.95000,-0.65813,-0.93277
4.00000,-0.66653,-0.94303
4.05000,-0.67480,-0.95329
4.10000,-0.68346,-0.96361
4.15000,-0.69173,-0.97422
4.20000,-0.69986,-0.98393
4.25000,-0.70826,-0.99453
4.30000,-0.71666,-1.00529
4.35000,-0.72506,-1.01494
4.40000,-0.73333,-1.02581
4.45000,-0.74160,-1.03563
4.50000,-0.75013,-1.04629
4.55000,-0.75840,-1.05658
4.60000,-0.76653,-1.06734
4.65000,-0.77493,-1.07735
4.70000,-0.78320,-1.08694
4.75000,-0.79133,-1.09726
4.80000,-0.79986,-1.10824
4.85000,-0.80840,-1.11883
4.90000,-0.81653,-1.12835
4.95000,-0.82480,-1.13882
5.00000,-0.83346,-1.14855
5.05000,-0.84160,-1.16050
5.10000,-0.84986,-1.16905
5.15000,-0.85826,-1.18004
5.20000,-0.86666,-1.18994
5.25000,-0.87493,-1.19984
5.30000,-0.88333,-1.20998
5.35000,-0.89160,-1.22102
5.40000,-0.90000,-1.22972
5.45000,-0.90826,-1.24091
5.50000,-0.91626,-1.24963
5.55000,-0.92480,-1.26059
5.60000,-0.93320,-1.26974
5.65000,-0.94146,-1.28096
5.70000,-0.94986,-1.29009
5.75000,-0.95840,-1.30166
5.80000,-0.96666,-1.31056
5.85000,-0.97480,-1.32129
5.90000,-0.98333,-1.33055
5.95000,-0.99173,-1.34281
6.00000,-0.99986,-1.35009
6.05000,-1.00826,-1.36133
6.10000,-1.01666,-1.37199
6.15000,-1.02480,-1.38129
6.20000,-1.03306,-1.39037
6.25000,-1.04160,-1.40301
6.30000,-1.04973,-1.41040
6.35000,-1.05800,-1.42286
6.40000,-1.06640,-1.43134
6.45000,-1.07493,-1.44366
6.50000,-1.08333,-1.45166
6.55000,-1.09160,-1.46406
6.60000,-1.09986,-1.47225
6.65000,-1.10853,-1.48413
6.70000,-1.11666,-1.49267
6.75000,-1.12480,-1.50342
6.80000,-1.13346,-1.51324
6.85000,-1.14173,-1.52377
6.90000,-1.14973,-1.53318
6.95000,-1.15826,-1.54317
7.00000,-1.16666,-1.55414
7.05000,-1.17466,-1.56376
7.10000,-1.18293,-1.57316
7.15000,-1.19160,-1.58302
7.20000,-1.19986,-1.59425
7.25000,-1.20813,-1.60340
7.30000,-1.21666,-1.61460
7.35000,-1.22506,-1.62477
7.40000,-1.23333,-1.63388
7.45000,-1.24173,-1.64458
7.50000,-1.25000,-1.65445
7.55000,-1.25840,-1.66470
7.60000,-1.26666,-1.67477
7.65000,-1.27466,-1.68503
7.70000,-1.28320,-1.69406
7.75000,-1.29160,-1.70557
7.80000,-1.29973,-1.71433
7.85000,-1.30813,-1.72481
7.90000,-1.31653,-1.73436
7.95000,-1.32453,-1.74479
8.00000,-1.33306,-1.75367
8.05000,-1.34173,-1.76469
8.10000,-1.34986,-1.77535
8.15000,-1.35813,-1.78459
8.20000,-1.36680,-1.79483
8.25000,-1.37493,-1.80463
8.30000,-1.38320,-1.81452
8.35000,-1.39173,-1.82496
8.40000,-1.40000,-1.83497
8.45000,-1.40826,-1.84490
8.50000,-1.41653,-1.85469
8.55000,-1.42480,-1.86474
8.60000,-1.43320,-1.87314
8.65000,-1.44160,-1.88569
8.70000,-1.44973,-1.89371
8.75000,-1.45826,-1.90381
8.80000,-1.46666,-1.91493
8.85000,-1.47480,-1.92395
8.90000,-1.48320,-1.93532
8.95000,-1.49173,-1.94304
9.00000,-1.50000,-1.95506
9.05000,-1.50826,-1.96283
9.10000,-1.51680,-1.97433
9.15000,-1.52506,-1.98255
9.20000,-1.53306,-1.99416
9.25000,-1.54146,-2.00113
9.30000,-1.55000,-2.01334
9.35000,-1.55813,-2.02072
9.40000,-1.56653,-2.03291
9.45000,-1.57493,-2.03964
9.50000,-1.58306,-2.05246
9.55000,-1.59133,-2.05847
9.60000,-1.59973,-2.07230
9.65000,-1.60826,-2.07796
9.70000,-1.61666,-2.09174
9.75000,-1.62493,-2.09864
9.80000,-1.63333,-2.11083
9.85000,-1.64186,-2.11812
9.90000,-1.65013,-2.13068
9.95000,-1.65826,-2.13745
10.00000,-1.66680,-2.14887
10.05000,-1.67493,-2.15705
10.10000,-1.68306,-2.16808
10.15000,-1.69146,-2.17532
10.20000,-1.70000,-2.18801
10.25000,-1.70800,-2.19529
10.30000,-1.71626,-2.20662
10.35000,-1.72493,-2.21381
10.40000,-1.73320,-2.22631
10.45000,-1.74146,-2.23359
10.50000,-1.74986,-2.24463
10.55000,-1.75840,-2.25362
10.60000,-1.76666,-2.26404
10.65000,-1.77506,-2.27264
10.70000,-1.78333,-2.28355
10.75000,-1.79173,-2.29185
10.80000,-1.80013,-2.30263
10.85000,-1.80813,-2.31101
10.90000,-1.81666,-2.32056
10.95000,-1.82493,-2.33013
11.00000,-1.83306,-2.33970
11.05000,-1.84160,-2.34905
11.10000,-1.85000,-2.35904
11.15000,-1.85800,-2.36800
11.20000,-1.86653,-2.37717
11.25000,-1.87506,-2.38659
11.30000,-1.88320,-2.39625
11.35000,-1.89146,-2.40489
11.40000,-1.90026,-2.41430
11.45000,-1.90840,-2.42352
11.50000,-1.91666,-2.43246
11.55000,-1.92506,-2.44195
11.60000,-1.93333,-2.45108
11.65000,-1.94160,-2.45881
11.70000,-1.94986,-2.43175
11.75000,-1.95826,-2.39705
11.80000,-1.96666,-2.41580
11.85000,-1.97493,-2.41904
11.90000,-1.98293,-2.41838
11.95000,-1.99146,-2.42735
12.00000,-2.00000,-2.43798
12.05000,-2.00813,-2.42260
12.10000,-2.01653,-2.41068
12.15000,-2.02506,-2.40586
12.20000,-2.03319,-2.32187
12.25000,-2.04146,-2.31390
12.30000,-2.05000,-2.33690
12.35000,-2.05839,-2.35150
12.40000,-2.06653,-2.36525
12.45000,-2.07493,-2.37661
12.50000,-2.08333,-2.39221
12.55000,-2.09146,-2.40303
12.60000,-2.09960,-2.41684
12.65000,-2.10813,-2.42752
12.70000,-2.11639,-2.43897
12.75000,-2.12466,-2.44818
12.80000,-2.13319,-2.45966
12.85000,-2.14173,-2.46786
12.90000,-2.14999,-2.47989
12.95000,-2.15826,-2.48998
13.00000,-2.16653,-2.50188
13.05000,-2.17506,-2.51154
13.10000,-2.18333,-2.52499
13.15000,-2.19159,-2.53440
13.20000,-2.20013,-2.54653
13.25000,-2.20839,-2.55683
13.30000,-2.21639,-2.56839
13.35000,-2.22479,-2.57587
13.40000,-2.23333,-2.58857
13.45000,-2.24133,-2.59713
13.50000,-2.24973,-2.60930
13.55000,-2.25839,-2.61866
13.60000,-2.26653,-2.62986
13.65000,-2.27493,-2.63883
13.70000,-2.28333,-2.64988
13.75000,-2.29159,-2.65858
13.80000,-2.29986,-2.66871
13.85000,-2.30826,-2.67761
13.90000,-2.31666,-2.68694
13.95000,-2.32506,-2.69509
14.00000,-2.33346,-2.70454
14.05000,-2.34146,-2.71305
14.10000,-2.35013,-2.72262
14.15000,-2.35839,-2.73154
14.20000,-2.36653,-2.74055
14.25000,-2.37506,-2.74971
14.30000,-2.38333,-2.75764
14.35000,-2.39146,-2.76715
14.40000,-2.39986,-2.77461
14.45000,-2.40853,-2.78407
14.50000,-2.41653,-2.79180
14.55000,-2.42479,-2.80054
14.60000,-2.43346,-2.80871
14.65000,-2.44173,-2.81698
14.70000,-2.44999,-2.82491
14.75000,-2.45853,-2.83342
14.80000,-2.46679,-2.84158
14.85000,-2.47493,-2.84880
14.90000,-2.48319,-2.85599
14.95000,-2.49146,-2.86357
15.00000,-2.49999,-2.87130
15.05000,-2.50826,-2.87869
15.10000,-2.51626,-2.88324
15.15000,-2.52479,-2.88816
15.20000,-2.53333,-2.89545
15.25000,-2.54146,-2.90213
15.30000,-2.54986,-2.90904
15.35000,-2.55839,-2.91717
15.40000,-2.56653,-2.92521
15.45000,-2.57479,-2.93194
15.50000,-2.58333,-2.93986
15.55000,-2.59159,-2.94715
15.60000,-2.59986,-2.95396
15.65000,-2.60813,-2.96157
15.70000,-2.61653,-2.97020
15.75000,-2.62479,-2.97722
15.80000,-2.63306,-2.98567
15.85000,-2.64146,-2.99321
15.90000,-2.64973,-3.00097
15.95000,-2.65799,-3.00897
16.00000,-2.66639,-3.01739
16.05000,-2.67493,-3.02628
16.10000,-2.68333,-3.03494
16.15000,-2.69159,-3.04451
16.20000,-2.69986,-3.05255
16.25000,-2.70839,-3.06089
16.30000,-2.71653,-3.07040
16.35000,-2.72479,-3.07805
16.40000,-2.73346,-3.08766
16.45000,-2.74173,-3.09677
16.50000,-2.74973,-3.10454
16.55000,-2.75813,-3.11236
16.60000,-2.76653,-3.12119
16.65000,-2.77466,-3.12994
16.70000,-2.78293,-3.13735
16.75000,-2.79173,-3.14762
16.80000,-2.79999,-3.15553
16.85000,-2.80839,-3.16376
16.90000,-2.81679,-3.17228
16.95000,-2.82519,-3.18085
17.00000,-2.83346,-3.18846
17.05000,-2.84173,-3.19629
17.10000,-2.85013,-3.20465
17.15000,-2.85839,-3.21338
17.20000,-2.86679,-3.22163
17.25000,-2.87479,-3.22871
17.30000,-2.88333,-3.23668
17.35000,-2.89173,-3.24480
17.40000,-2.89973,-3.25177
17.45000,-2.90813,-3.26003
17.50000,-2.91653,-3.26854
17.55000,-2.92466,-3.27565
17.60000,-2.93306,-3.28323
17.65000,-2.94173,-3.29268
17.70000,-2.94986,-3.30100
17.75000,-2.95826,-3.30769
17.80000,-2.96679,-3.31614
17.85000,-2.97506,-3.32424
17.90000,-2.98319,-3.33201
17.95000,-2.99159,-3.33955
18.00000,-2.99986,-3.34757
18.05000,-3.00799,-3.35405
18.10000,-3.01639,-3.36211
18.15000,-3.02466,-3.36954
18.20000,-3.03319,-3.37692
18.25000,-3.04146,-3.38519
18.30000,-3.04959,-3.39338
18.35000,-3.05813,-3.40070
18.40000,-3.06666,-3.40961
18.45000,-3.07479,-3.41641
18.50000,-3.08319,-3.42388
18.55000,-3.09173,-3.43055
18.60000,-3.09986,-3.43831
18.65000,-3.10813,-3.44449
18.70000,-3.11679,-3.45176
18.75000,-3.12506,-3.45875
18.80000,-3.13319,-3.46591
18.85000,-3.14146,-3.47232
18.90000,-3.14999,-3.48021
18.95000,-3.15813,-3.48586
19.00000,-3.16639,-3.49320
19.05000,-3.17493,-3.49941
19.10000,-3.18306,-3.50667
19.15000,-3.19133,-3.51345
19.20000,-3.19973,-3.52151
19.25000,-3.20826,-3.52886
19.30000,-3.21666,-3.53623
19.35000,-3.22493,-3.54196
19.40000,-3.23333,-3.54883
19.45000,-3.24186,-3.55627
19.50000,-3.24999,-3.56417
19.55000,-3.25813,-3.56975
19.60000,-3.26679,-3.57631
19.65000,-3.27506,-3.58363
19.70000,-3.28319,-3.58924
19.75000,-3.29146,-3.59599
19.80000,-3.29986,-3.60267
19.85000,-3.30799,-3.60927
19.90000,-3.31626,-3.61543
19.95000,-3.32493,-3.62172
20.00000,-3.33319,-3.62969
20.05000,-3.34146,-3.63547
20.10000,-3.34999,-3.64267
20.15000,-3.35839,-3.64900
20.20000,-3.36666,-3.65478
20.25000,-3.37506,-3.66137
20.30000,-3.38333,-3.66802
20.35000,-3.39173,-3.67365
20.40000,-3.40013,-3.68051
20.45000,-3.40826,-3.68573
20.50000,-3.41666,-3.69168
20.55000,-3.42479,-3.69762
20.60000,-3.43279,-3.70214
20.65000,-3.44146,-3.70872
20.70000,-3.44986,-3.71561
20.75000,-3.45799,-3.72108
20.80000,-3.46652,-3.72789
20.85000,-3.47519,-3.73318
20.90000,-3.48332,-3.74020
20.95000,-3.49159,-3.74469
21.00000,-3.50012,-3.75186
21.05000,-3.50839,-3.75795
21.10000,-3.51666,-3.76362
21.15000,-3.52506,-3.76954
21.20000,-3.53346,-3.77487
21.25000,-3.54159,-3.78117
21.30000,-3.54999,-3.78630
21.35000,-3.55826,-3.79197
21.40000,-3.56666,-3.79784
21.45000,-3.57492,-3.80382
21.50000,-3.58306,-3.80946
21.55000,-3.59159,-3.81434
21.60000,-3.59986,-3.82046
21.65000,-3.60812,-3.82522
21.70000,-3.61666,-3.83190
21.75000,-3.62519,-3.83611
21.80000,-3.63332,-3.84212
21.85000,-3.64159,-3.84674
21.90000,-3.65012,-3.85240
21.95000,-3.65852,-3.85897
22.00000,-3.66666,-3.86446
22.05000,-3.67492,-3.86880
22.10000,-3.68332,-3.87549
22.15000,-3.69132,-3.87922
22.20000,-3.69959,-3.88658
22.25000,-3.70812,-3.89066
22.30000,-3.71639,-3.89691
22.35000,-3.72479,-3.90143
22.40000,-3.73319,-3.90921
22.45000,-3.74159,-3.91291
22.50000,-3.74999,-3.92030
22.55000,-3.75826,-3.92544
22.60000,-3.76652,-3.93089
22.65000,-3.77519,-3.93737
22.70000,-3.78332,-3.94275
22.75000,-3.79146,-3.94917
22.80000,-3.80012,-3.95499
22.85000,-3.80826,-3.96214
22.90000,-3.81639,-3.96875
22.95000,-3.82479,-3.97439
23.00000,-3.83332,-3.98222
23.05000,-3.84132,-3.98867
23.10000,-3.84972,-3.99519
23.15000,-3.85839,-4.00202
23.20000,-3.86666,-4.00843
23.25000,-3.87479,-4.01492
23.30000,-3.88319,-4.02178
23.35000,-3.89172,-4.02723
23.40000,-3.89999,-4.03563
23.45000,-3.90839,-4.04075
23.50000,-3.91666,-4.04758
23.55000,-3.92506,-4.05299
23.60000,-3.93332,-4.05963
23.65000,-3.94146,-4.06564
23.70000,-3.95012,-4.07278
23.75000,-3.95826,-4.07819
23.80000,-3.96639,-4.08528
23.85000,-3.97492,-4.08967
23.90000,-3.98332,-4.09715
23.95000,-3.99132,-4.10131
24.00000,-3.99972,-4.10905
24.05000,-4.00839,-4.11452
24.10000,-4.01666,-4.12159
24.15000,-4.02492,-4.12649
24.20000,-4.03346,-4.13306
24.25000,-4.04159,-4.13904
24.30000,-4.04986,-4.14397
24.35000,-4.05826,-4.15007
24.40000,-4.06666,-4.15631
24.45000,-4.07492,-4.16144
24.50000,-4.08319,-4.16684
24.55000,-4.09146,-4.17206
24.60000,-4.09972,-4.17791
24.65000,-4.10812,-4.18293
24.70000,-4.11626,-4.18876
24.75000,-4.12492,-4.19355
24.80000,-4.13332,-4.20083
24.85000,-4.14159,-4.20639
24.90000,-4.14986,-4.21096
24.95000,-4.15839,-4.21705
25.00000,-4.16666,-4.22232
25.05000,-4.17492,-4.22736
25.10000,-4.18346,-4.23281
25.15000,-4.19172,-4.23854
25.20000,-4.19986,-4.24313
25.25000,-4.20812,-4.24696
25.30000,-4.21652,-4.25385
25.35000,-4.22466,-4.25742
25.40000,-4.23306,-4.26325
25.45000,-4.24146,-4.26805
25.50000,-4.24972,-4.27350
25.55000,-4.25812,-4.27844
25.60000,-4.26652,-4.28405
25.65000,-4.27492,-4.28881
25.70000,-4.28332,-4.29474
25.75000,-4.29159,-4.30015
25.80000,-4.29999,-4.30412
25.85000,-4.30839,-4.30984
25.90000,-4.31666,-4.31522
25.95000,-4.32479,-4.31947
26.00000,-4.33332,-4.32517
26.05000,-4.34159,-4.32924
26.10000,-4.34972,-4.33462
26.15000,-4.35812,-4.33835
26.20000,-4.36666,-4.34415
26.25000,-4.37466,-4.34872
26.30000,-4.38306,-4.35384
26.35000,-4.39159,-4.35817
26.40000,-4.39986,-4.36440
26.45000,-4.40812,-4.36852
26.50000,-4.41666,-4.37340
26.55000,-4.42506,-4.37882
26.60000,-4.43319,-4.38367
26.65000,-4.44159,-4.38740
26.70000,-4.44999,-4.39313
26.75000,-4.45839,-4.39710
26.80000,-4.46679,-4.40353
26.85000,-4.47479,-4.40658
26.90000,-4.48332,-4.41162
26.95000,-4.49159,-4.41684
27.00000,-4.49972,-4.42017
27.05000,-4.50826,-4.42542
27.10000,-4.51652,-4.43027
27.15000,-4.52466,-4.43452
27.20000,-4.53306,-4.43859
27.25000,-4.54172,-4.44402
27.30000,-4.54986,-4.44902
27.35000,-4.55826,-4.45373
27.40000,-4.56692,-4.45776
27.45000,-4.57519,-4.46250
27.50000,-4.58332,-4.46744
27.55000,-4.59172,-4.47097
27.60000,-4.59999,-4.47564
27.65000,-4.60826,-4.48027
27.70000,-4.61652,-4.48431
27.75000,-4.62479,-4.48912
27.80000,-4.63332,-4.49271
27.85000,-4.64159,-4.49825
27.90000,-4.64972,-4.50200
27.95000,-4.65826,-4.50654
28.00000,-4.66679,-4.51032
28.05000,-4.67492,-4.51564
28.10000,-4.68319,-4.51846
28.15000,-4.69172,-4.52338
28.20000,-4.69986,-4.52712
28.25000,-4.70812,-4.53156
28.30000,-4.71652,-4.53509
28.35000,-4.72506,-4.53996
28.40000,-4.73319,-4.54435
28.45000,-4.74145,-4.54797
28.50000,-4.74986,-4.55162
28.55000,-4.75799,-4.55538
28.60000,-4.76639,-4.55975
28.65000,-4.77479,-4.56430
28.70000,-4.78306,-4.56727
28.75000,-4.79145,-4.57204
28.80000,-4.79985,-4.57654
28.85000,-4.80826,-4.58017
28.90000,-4.81666,-4.58438
28.95000,-4.82492,-4.58811
29.00000,-4.83319,-4.59220
29.05000,-4.84172,-4.59521
29.10000,-4.84985,-4.60093
29.15000,-4.85812,-4.60339
29.20000,-4.86665,-4.60782
29.25000,-4.87506,-4.61205
29.30000,-4.88305,-4.61566
29.35000,-4.89145,-4.61927
29.40000,-4.89999,-4.62353
29.45000,-4.90799,-4.62707
29.50000,-4.91625,-4.63137
29.55000,-4.92492,-4.63609
29.60000,-4.93319,-4.63990
29.65000,-4.94145,-4.64373
29.70000,-4.94999,-4.64858
29.75000,-4.95825,-4.65177
29.80000,-4.96665,-4.65668
29.85000,-4.97519,-4.66038
29.90000,-4.98345,-4.66474
29.95000,-4.99185,-4.66883
30.00000,-5.00012,-4.67232
30.05000,-5.00812,-4.67644
30.10000,-5.01679,-4.67942
30.15000,-5.02505,-4.68457
30.20000,-5.03305,-4.68728
30.25000,-5.04159,-4.69208
30.30000,-5.04999,-4.69574
30.35000,-5.05812,-4.70009
30.40000,-5.06652,-4.70420
30.45000,-5.07519,-4.70809
30.50000,-5.08332,-4.71329
30.55000,-5.09145,-4.71596
30.60000,-5.10012,-4.72092
30.65000,-5.10839,-4.72520
30.70000,-5.11652,-4.72935
30.75000,-5.12505,-4.73336
30.80000,-5.13345,-4.73754
30.85000,-5.14172,-4.74135
30.90000,-5.14999,-4.74565
30.95000,-5.15825,-4.74904
31.00000,-5.16665,-4.75327
31.05000,-5.17492,-4.75721
31.10000,-5.18305,-4.76133
31.15000,-5.19159,-4.76387
31.20000,-5.19985,-4.76892
31.25000,-5.20799,-4.77242
31.30000,-5.21639,-4.77614
31.35000,-5.22505,-4.78020
31.40000,-5.23319,-4.78492
31.45000,-5.24145,-4.78799
31.50000,-5.24999,-4.79109
31.55000,-5.25839,-4.79659
31.60000,-5.26652,-4.79859
31.65000,-5.27492,-4.80348
31.70000,-5.28319,-4.80634
31.75000,-5.29145,-4.81096
31.80000,-5.29972,-4.81319
31.85000,-5.30825,-4.81838
31.90000,-5.31639,-4.82057
31.95000,-5.32479,-4.82498
32.00000,-5.33305,-4.82803
32.05000,-5.34159,-4.83170
32.10000,-5.34999,-4.83591
32.15000,-5.35812,-4.83928
32.20000,-5.36652,-4.84261
32.25000,-5.37505,-4.84600
32.30000,-5.38332,-4.85003
32.35000,-5.39159,-4.85279
32.40000,-5.39999,-4.85664
32.45000,-5.40825,-4.86006
32.50000,-5.41625,-4.86335
32.55000,-5.42465,-4.86544
32.60000,-5.43319,-4.87045
32.65000,-5.44132,-4.87303
32.70000,-5.44972,-4.87703
32.75000,-5.45825,-4.87959
32.80000,-5.46665,-4.88445
32.85000,-5.47492,-4.88653
32.90000,-5.48332,-4.89108
32.95000,-5.49172,-4.89310
33.00000,-5.49999,-4.89784
33.05000,-5.50825,-4.89966
33.10000,-5.51665,-4.90392
33.15000,-5.52505,-4.90657
33.20000,-5.53332,-4.90997
33.25000,-5.54145,-4.91253
33.30000,-5.54999,-4.91607
33.35000,-5.55825,-4.91957
33.40000,-5.56639,-4.92171
33.45000,-5.57479,-4.92455
33.50000,-5.58319,-4.92768
33.55000,-5.59132,-4.93079
33.60000,-5.59972,-4.93273
33.65000,-5.60852,-4.93728
33.70000,-5.61665,-4.94016
33.75000,-5.62492,-4.94313
33.80000,-5.63345,-4.94511
33.85000,-5.64172,-4.94994
33.90000,-5.65012,-4.95057
33.95000,-5.65839,-4.95543
34.00000,-5.66665,-4.95625
34.05000,-5.67492,-4.96004
34.10000,-5.68319,-4.96123
34.15000,-5.69145,-4.96532
34.20000,-5.69999,-4.96683
34.25000,-5.70812,-4.97174
34.30000,-5.71639,-4.97196
34.35000,-5.72479,-4.97637
34.40000,-5.73332,-4.97844
34.45000,-5.74145,-4.98332
34.50000,-5.74985,-4.98355
34.55000,-5.75839,-4.98800
34.60000,-5.76652,-4.99086
34.65000,-5.77492,-4.99349
34.70000,-5.78332,-4.99566
34.75000,-5.79172,-5.00036
34.80000,-5.79985,-5.00082
34.85000,-5.80825,-5.00491
34.90000,-5.81665,-5.00617
34.95000,-5.82479,-5.01038
35.00000,-5.83305,-5.01119
35.05000,-5.84145,-5.01513
35.10000,-5.84972,-5.01644
35.15000,-5.85799,-5.02006
35.20000,-5.86652,-5.02209
35.25000,-5.87492,-5.02543
35.30000,-5.88332,-5.02795
35.35000,-5.89159,-5.03132
35.40000,-5.89985,-5.03241
35.45000,-5.90839,-5.03566
35.50000,-5.91665,-5.03864
35.55000,-5.92492,-5.03984
35.60000,-5.93345,-5.04276
35.65000,-5.94172,-5.04463
35.70000,-5.94959,-5.04624
35.75000,-5.95812,-5.04735
35.80000,-5.96665,-5.05167
35.85000,-5.97465,-5.05268
35.90000,-5.98305,-5.05617
35.95000,-5.99172,-5.05740
36.00000,-5.99999,-5.06254
36.05000,-6.00812,-5.06300
36.10000,-6.01652,-5.06823
36.15000,-6.02505,-5.06832
36.20000,-6.03332,-5.07395
36.25000,-6.04172,-5.07472
36.30000,-6.05012,-5.07939
36.35000,-6.05852,-5.07943
36.40000,-6.06679,-5.08466
36.45000,-6.07479,-5.08402
36.50000,-6.08332,-5.08818
36.55000,-6.09159,-5.08931
36.60000,-6.09972,-5.09321
36.65000,-6.10812,-5.09355
36.70000,-6.11665,-5.09820
36.75000,-6.12479,-5.09969
36.80000,-6.13319,-5.10289
36.85000,-6.14172,-5.10504
36.90000,-6.14998,-5.10924
36.95000,-6.15825,-5.11086
37.00000,-6.16679,-5.11385
37.05000,-6.17505,-5.11758
37.10000,-6.18332,-5.11895
37.15000,-6.19172,-5.12349
37.20000,-6.19998,-5.12522
37.25000,-6.20825,-5.12916
37.30000,-6.21652,-5.13088
37.35000,-6.22479,-5.13473
37.40000,-6.23318,-5.13611
37.45000,-6.24145,-5.14144
37.50000,-6.24958,-5.14217
37.55000,-6.25812,-5.14703
37.60000,-6.26652,-5.14818
37.65000,-6.27465,-5.15408
37.70000,-6.28318,-5.15382
37.75000,-6.29172,-5.16010
37.80000,-6.29998,-5.16091
37.85000,-6.30825,-5.16626
37.90000,-6.31678,-5.16680
37.95000,-6.32505,-5.17287
38.00000,-6.33318,-5.17355
38.05000,-6.34158,-5.17684
38.10000,-6.34998,-5.18070
38.15000,-6.35812,-5.18262
38.20000,-6.36638,-5.18653
38.25000,-6.37492,-5.18818
38.30000,-6.38318,-5.19179
38.35000,-6.39145,-5.19398
38.40000,-6.39985,-5.19884
38.45000,-6.40838,-5.19977
38.50000,-6.41665,-5.20513
38.55000,-6.42492,-5.20648
38.60000,-6.43332,-5.20993
38.65000,-6.44185,-5.21283
38.70000,-6.45012,-5.21581
38.75000,-6.45825,-5.21830
38.80000,-6.46678,-5.22121
38.85000,-6.47505,-5.22489
38.90000,-6.48305,-5.22606
38.95000,-6.49158,-5.22956
39.00000,-6.49998,-5.23316
39.05000,-6.50812,-5.23673
39.10000,-6.51638,-5.23758
39.15000,-6.52492,-5.24311
39.20000,-6.53318,-5.24495
39.25000,-6.54132,-5.24950
39.30000,-6.54998,-5.25129
39.35000,-6.55838,-5.25622
39.40000,-6.56665,-5.25751
39.45000,-6.57518,-5.26295
39.50000,-6.58345,-5.26347
39.55000,-6.59172,-5.26734
39.60000,-6.59998,-5.27006
39.65000,-6.60812,-5.27342
39.70000,-6.61652,-5.27577
39.75000,-6.62492,-5.27904
39.80000,-6.63305,-5.28175
39.85000,-6.64158,-5.28579
39.90000,-6.64985,-5.28751
39.95000,-6.65812,-5.29218
40.00000,-6.66652,-5.29321
40.05000,-6.67518,-5.29916
40.10000,-6.68332,-5.30003
40.15000,-6.69158,-5.30624
40.20000,-6.70025,-5.30512
40.25000,-6.70838,-5.31212
40.30000,-6.71665,-5.31036
40.35000,-6.72505,-5.31786
40.40000,-6.73332,-5.31652
40.45000,-6.74145,-5.32302
40.50000,-6.74985,-5.32195
40.55000,-6.75812,-5.32753
40.60000,-6.76665,-5.32877
40.65000,-6.77492,-5.33388
40.70000,-6.78318,-5.33518
40.75000,-6.79172,-5.33826
40.80000,-6.80012,-5.34112
40.85000,-6.80825,-5.34482
40.90000,-6.81665,-5.34645
40.95000,-6.82518,-5.34954
41.00000,-6.83332,-5.35179
41.05000,-6.84145,-5.35434
41.10000,-6.85012,-5.35645
41.15000,-6.85838,-5.36061
41.20000,-6.86665,-5.36247
41.25000,-6.87492,-5.36468
41.30000,-6.88332,-5.36764
41.35000,-6.89158,-5.37032
41.40000,-6.89972,-5.37223
41.45000,-6.90812,-5.37482
41.50000,-6.91638,-5.37695
41.55000,-6.92465,-5.38066
41.60000,-6.93305,-5.38187
41.65000,-6.94158,-5.38656
41.70000,-6.94985,-5.38838
41.75000,-6.95812,-5.39300
41.80000,-6.96652,-5.39400
41.85000,-6.97505,-5.39831
41.90000,-6.98332,-5.40022
41.95000,-6.99158,-5.40392
42.00000,-7.00012,-5.40579
42.05000,-7.00838,-5.40921
42.10000,-7.01652,-5.41204
42.15000,-7.02492,-5.41362
42.20000,-7.03345,-5.41726
42.25000,-7.04145,-5.41940
42.30000,-7.04972,-5.42069
42.35000,-7.05825,-5.42527
42.40000,-7.06652,-5.42686
42.45000,-7.07478,-5.43196
42.50000,-7.08332,-5.43295
42.55000,-7.09172,-5.43767
42.60000,-7.09998,-5.43955
42.65000,-7.10838,-5.44287
42.70000,-7.11665,-5.44523
42.75000,-7.12505,-5.44776
42.80000,-7.13332,-5.45117
42.85000,-7.14158,-5.45338
42.90000,-7.15012,-5.45687
42.95000,-7.15838,-5.45841
43.00000,-7.16638,-5.46232
43.05000,-7.17492,-5.46369
43.10000,-7.18318,-5.46831
43.15000,-7.19132,-5.46895
43.20000,-7.19985,-5.47286
43.25000,-7.20838,-5.47650
43.30000,-7.21652,-5.47952
43.35000,-7.22492,-5.48142
43.40000,-7.23345,-5.48460
43.45000,-7.24172,-5.48683
43.50000,-7.24998,-5.49010
43.55000,-7.25852,-5.49141
43.60000,-7.26678,-5.49678
43.65000,-7.27505,-5.49681
43.70000,-7.28332,-5.50205
43.75000,-7.29158,-5.50324
43.80000,-7.29998,-5.50564
43.85000,-7.30838,-5.50754
43.90000,-7.31652,-5.51051
43.95000,-7.32492,-5.51245
44.00000,-7.33332,-5.51633
44.05000,-7.34158,-5.51843
44.10000,-7.34998,-5.52242
44.15000,-7.35852,-5.52398
44.20000,-7.36665,-5.52946
44.25000,-7.37492,-5.52998
44.30000,-7.38345,-5.53352
44.35000,-7.39172,-5.53685
44.40000,-7.39972,-5.53993
44.45000,-7.40812,-5.54173
44.50000,-7.41652,-5.54483
44.55000,-7.42478,-5.54788
44.60000,-7.43305,-5.55152
44.65000,-7.44158,-5.55465
44.70000,-7.44985,-5.55613
44.75000,-7.45811,-5.56144
44.80000,-7.46652,-5.56221
44.85000,-7.47492,-5.56644
44.90000,-7.48332,-5.56785
44.95000,-7.49158,-5.57379
45.00000,-7.49998,-5.57425
45.05000,-7.50851,-5.57883
45.10000,-7.51651,-5.58230
45.15000,-7.52478,-5.58437
45.20000,-7.53345,-5.58577
45.25000,-7.54171,-5.59164
45.30000,-7.54985,-5.59335
45.35000,-7.55825,-5.59592
45.40000,-7.56665,-5.59865
45.45000,-7.57478,-5.60187
45.50000,-7.58305,-5.60358
45.55000,-7.59158,-5.60824
45.60000,-7.59985,-5.61003
45.65000,-7.60825,-5.61502
45.70000,-7.61678,-5.61634
45.75000,-7.62505,-5.62162
45.80000,-7.63331,-5.62370
45.85000,-7.64171,-5.62692
45.90000,-7.65011,-5.63058
45.95000,-7.65838,-5.63386
46.00000,-7.66678,-5.63643
46.05000,-7.67491,-5.64099
46.10000,-7.68331,-5.64312
46.15000,-7.69158,-5.64696
46.20000,-7.69971,-5.64919
46.25000,-7.70825,-5.65358
46.30000,-7.71651,-5.65587
46.35000,-7.72465,-5.65803
46.40000,-7.73305,-5.66117
46.45000,-7.74185,-5.66520
46.50000,-7.74985,-5.66819
46.55000,-7.75825,-5.67186
46.60000,-7.76691,-5.67576
46.65000,-7.77505,-5.67832
46.70000,-7.78331,-5.68196
46.75000,-7.79185,-5.68440
46.80000,-7.80011,-5.68873
46.85000,-7.80838,-5.69127
46.90000,-7.81665,-5.69473
46.95000,-7.82491,-5.69707
47.00000,-7.83331,-5.70042
47.05000,-7.84158,-5.70349
47.10000,-7.84971,-5.70667
47.15000,-7.85825,-5.70906
47.20000,-7.86665,-5.71345
47.25000,-7.87491,-5.71598
47.30000,-7.88331,-5.71877
47.35000,-7.89185,-5.72230
47.40000,-7.89998,-5.72569
47.45000,-7.90811,-5.72703
47.50000,-7.91665,-5.73119
47.55000,-7.92505,-5.73419
47.60000,-7.93318,-5.73677
47.65000,-7.94145,-5.73901
47.70000,-7.94998,-5.74373
47.75000,-7.95811,-5.74545
47.80000,-7.96638,-5.74965
47.85000,-7.97478,-5.75228
47.90000,-7.98305,-5.75592
47.95000,-7.99131,-5.75853
48.00000,-7.99971,-5.76221
48.05000,-8.00825,-5.76601
48.10000,-8.01665,-5.76923
48.15000,-8.02491,-5.77265
48.20000,-8.03331,-5.77519
48.25000,-8.04185,-5.77834
48.30000,-8.04998,-5.78287
48.35000,-8.05825,-5.78392
48.40000,-8.06665,-5.78765
48.45000,-8.07491,-5.79056
48.50000,-8.08305,-5.79392
48.55000,-8.09158,-5.79634
48.60000,-8.09998,-5.80085
48.65000,-8.10811,-5.80360
48.70000,-8.11651,-5.80680
48.75000,-8.12505,-5.81022
48.80000,-8.13318,-5.81426
48.85000,-8.14158,-5.81670
48.90000,-8.14998,-5.82086
48.95000,-8.15838,-5.82435
49.00000,-8.16665,-5.82699
49.05000,-8.17518,-5.83125
49.10000,-8.18345,-5.83348
49.15000,-8.19171,-5.83694
49.20000,-8.19998,-5.84034
49.25000,-8.20811,-5.84224
49.30000,-8.21678,-5.84523
49.35000,-8.22505,-5.84879
49.40000,-8.23318,-5.85158
49.45000,-8.24158,-5.85395
49.50000,-8.24998,-5.85764
49.55000,-8.25811,-5.86007
49.60000,-8.26651,-5.86276
49.65000,-8.27505,-5.86627
49.70000,-8.28318,-5.86899
49.75000,-8.29158,-5.87257
49.80000,-8.30011,-5.87553
49.85000,-8.30838,-5.87883
49.90000,-8.31665,-5.88076
49.95000,-8.32505,-5.88346
50.00000,-8.33331,-5.88675
50.05000,-8.34171,-5.88914
50.10000,-8.35011,-5.89244
50.15000,-8.35825,-5.89444
50.20000,-8.36665,-5.89748
50.25000,-8.37491,-5.89968
50.30000,-8.38305,-5.90232
50.35000,-8.39158,-5.90482
50.40000,-8.39998,-5.90838
50.45000,-8.40825,-5.91010
50.50000,-8.41665,-5.91345
50.55000,-8.42531,-5.91712
50.60000,-8.43331,-5.91975
50.65000,-8.44158,-5.92108
50.70000,-8.45011,-5.92444
50.75000,-8.45838,-5.92714
50.80000,-8.46665,-5.93101
50.85000,-8.47491,-5.93173
50.90000,-8.48345,-5.93588
50.95000,-8.49158,-5.93701
51.00000,-8.49985,-5.93982
51.05000,-8.50825,-5.94226
51.10000,-8.51651,-5.94457
51.15000,-8.52491,-5.94857
51.20000,-8.53318,-5.95054
51.25000,-8.54171,-5.95300
51.30000,-8.54998,-5.95601
51.35000,-8.55838,-5.96022
51.40000,-8.56665,-5.95989
51.45000,-8.57505,-5.96442
51.50000,-8.58331,-5.96606
51.55000,-8.59158,-5.96893
51.60000,-8.60011,-5.97013
51.65000,-8.60838,-5.97481
51.70000,-8.61651,-5.97609
51.75000,-8.62491,-5.97927
51.80000,-8.63331,-5.98196
51.85000,-8.64145,-5.98542
51.90000,-8.64971,-5.98807
51.95000,-8.65825,-5.99121
52.00000,-8.66651,-5.99367
52.05000,-8.67465,-5.99680
52.10000,-8.68318,-5.99961
52.15000,-8.69158,-6.00320
52.20000,-8.69985,-6.00611
52.25000,-8.70825,-6.00950
52.30000,-8.71651,-6.01220
52.35000,-8.72491,-6.01472
52.40000,-8.73318,-6.01880
52.45000,-8.74131,-6.02013
52.50000,-8.74998,-6.02442
52.55000,-8.75825,-6.02775
52.60000,-8.76625,-6.03070
52.65000,-8.77491,-6.03315
52.70000,-8.78331,-6.03732
52.75000,-8.79145,-6.04007
52.80000,-8.79998,-6.04285
52.85000,-8.80851,-6.04672
52.90000,-8.81665,-6.04941
52.95000,-8.82491,-6.05243
53.00000,-8.83345,-6.05512
53.05000,-8.84171,-6.05898
53.10000,-8.84998,-6.06043
53.15000,-8.85851,-6.06456
53.20000,-8.86678,-6.06648
53.25000,-8.87491,-6.06972
53.30000,-8.88331,-6.07127
53.35000,-8.89145,-6.07452
53.40000,-8.89998,-6.07571
53.45000,-8.90838,-6.08034
53.50000,-8.91638,-6.08167
53.55000,-8.92491,-6.08438
53.60000,-8.93345,-6.08728
53.65000,-8.94158,-6.09111
53.70000,-8.94998,-6.09220
53.75000,-8.95851,-6.09614
53.80000,-8.96665,-6.09825
53.85000,-8.97491,-6.10097
53.90000,-8.98345,-6.10290
53.95000,-8.99171,-6.10690
54.00000,-8.99985,-6.10716
54.05000,-9.00824,-6.11058
54.10000,-9.01665,-6.11239
54.15000,-9.02491,-6.11578
54.20000,-9.03318,-6.11687
54.25000,-9.04158,-6.12041
54.30000,-9.04971,-6.12100
54.35000,-9.05798,-6.12557
54.40000,-9.06651,-6.12696
54.45000,-9.07491,-6.13112
54.50000,-9.08331,-6.13306
54.55000,-9.09158,-6.13739
54.60000,-9.09998,-6.13801
54.65000,-9.10838,-6.14195
54.70000,-9.11664,-6.14369
54.75000,-9.12478,-6.14651
54.80000,-9.13344,-6.14874
54.85000,-9.14171,-6.15358
54.90000,-9.14971,-6.15502
54.95000,-9.15824,-6.15770
55.00000,-9.16664,-6.16121
55.05000,-9.17478,-6.16395
55.10000,-9.18304,-6.16566
55.15000,-9.19171,-6.16955
55.20000,-9.19998,-6.17203
55.25000,-9.20824,-6.17551
55.30000,-9.21664,-6.17810
55.35000,-9.22504,-6.18133
55.40000,-9.23331,-6.18320
55.45000,-9.24171,-6.18773
55.50000,-9.24998,-6.18875
55.55000,-9.25838,-6.19309
55.60000,-9.26678,-6.19474
55.65000,-9.27478,-6.19862
55.70000,-9.28344,-6.19910
55.75000,-9.29171,-6.20418
55.80000,-9.29971,-6.20471
55.85000,-9.30824,-6.20870
55.90000,-9.31664,-6.21047
55.95000,-9.32464,-6.21442
56.00000,-9.33318,-6.21472
56.05000,-9.34184,-6.22092
56.10000,-9.34984,-6.22155
56.15000,-9.35811,-6.22573
56.20000,-9.36678,-6.22689
56.25000,-9.37504,-6.23262
56.30000,-9.38331,-6.23197
56.35000,-9.39171,-6.23709
56.40000,-9.39998,-6.23765
56.45000,-9.40824,-6.24160
56.50000,-9.41651,-6.24292
56.55000,-9.42491,-6.24703
56.60000,-9.43331,-6.24893
56.65000,-9.44171,-6.25230
56.70000,-9.44971,-6.25351
56.75000,-9.45838,-6.25675
56.80000,-9.46678,-6.25844
56.85000,-9.47491,-6.26288
56.90000,-9.48318,-6.26383
56.95000,-9.49184,-6.26686
57.00000,-9.49998,-6.26931
57.05000,-9.50824,-6.27290
57.10000,-9.51678,-6.27371
57.15000,-9.52518,-6.27779
57.20000,-9.53318,-6.27925
57.25000,-9.54158,-6.28188
57.30000,-9.54998,-6.28315
57.35000,-9.55811,-6.28703
57.40000,-9.56638,-6.28832
57.45000,-9.57491,-6.29141
57.50000,-9.58318,-6.29330
57.55000,-9.59144,-6.29541
57.60000,-9.59984,-6.29810
57.65000,-9.60824,-6.30066
57.70000,-9.61664,-6.30277
57.75000,-9.62491,-6.30569
57.80000,-9.63331,-6.30766
57.85000,-9.64171,-6.30997
57.90000,-9.64998,-6.31333
57.95000,-9.65824,-6.31507
58.00000,-9.66664,-6.31747
58.05000,-9.67504,-6.32048
58.10000,-9.68318,-6.32255
58.15000,-9.69158,-6.32466
58.20000,-9.69998,-6.32786
58.25000,-9.70798,-6.32990
58.30000,-9.71624,-6.33097
58.35000,-9.72491,-6.33495
58.40000,-9.73318,-6.33835
58.45000,-9.74144,-6.34091
58.50000,-9.74998,-6.34338
58.55000,-9.75838,-6.34705
58.60000,-9.76664,-6.34964
58.65000,-9.77504,-6.35311
58.70000,-9.78344,-6.35514
58.75000,-9.79184,-6.35890
58.80000,-9.80011,-6.36176
58.85000,-9.80824,-6.36357
58.90000,-9.81678,-6.36593
58.95000,-9.82504,-6.37012
59.00000,-9.83304,-6.37204
59.05000,-9.84158,-6.37466
59.10000,-9.84998,-6.37805
59.15000,-9.85811,-6.38122
59.20000,-9.86651,-6.38261
59.25000,-9.87518,-6.38745
59.30000,-9.88331,-6.38940
59.35000,-9.89158,-6.39399
59.40000,-9.90024,-6.39465
59.45000,-9.90838,-6.40060
59.50000,-9.91664,-6.40071
59.55000,-9.92504,-6.40625
59.60000,-9.93344,-6.40592
59.65000,-9.94158,-6.41190
59.70000,-9.94998,-6.41167
59.75000,-9.95824,-6.41720
59.80000,-9.96664,-6.41735
59.85000,-9.97491,-6.42236
59.90000,-9.98304,-6.42374
59.95000,-9.99158,-6.42684
60.00000,-9.99998,-6.43116
60.05000,-10.00811,-6.43388
60.10000,-10.01651,-6.43588
60.15000,-10.02504,-6.43932
60.20000,-10.03331,-6.44291
60.25000,-10.04144,-6.44493
60.30000,-10.04998,-6.44735
60.35000,-10.05838,-6.45190
60.40000,-10.06638,-6.45196
60.45000,-10.07464,-6.45688
60.50000,-10.08318,-6.45805
60.55000,-10.09144,-6.46255
60.60000,-10.09984,-6.46438
60.65000,-10.10824,-6.47000
60.70000,-10.11651,-6.46844
60.75000,-10.12478,-6.47573
60.80000,-10.13318,-6.47463
60.85000,-10.14158,-6.48161
60.90000,-10.14998,-6.48032
60.95000,-10.15824,-6.48924
61.00000,-10.16664,-6.48580
61.05000,-10.17504,-6.49331
61.10000,-10.18331,-6.49328
61.15000,-10.19158,-6.50023
61.20000,-10.19998,-6.49691
61.25000,-10.20837,-6.50620
61.30000,-10.21637,-6.50367
61.35000,-10.22491,-6.51086
61.40000,-10.23344,-6.50975
61.45000,-10.24144,-6.51693
61.50000,-10.24971,-6.51525
61.55000,-10.25824,-6.52136
61.60000,-10.26664,-6.52271
61.65000,-10.27491,-6.52692
61.70000,-10.28344,-6.52871
61.75000,-10.29171,-6.53231
61.80000,-10.29998,-6.53446
61.85000,-10.30837,-6.53797
61.90000,-10.31664,-6.53892
61.95000,-10.32504,-6.54399
62.00000,-10.33331,-6.54504
62.05000,-10.34144,-6.54878
62.10000,-10.34997,-6.54954
62.15000,-10.35837,-6.55517
62.20000,-10.36637,-6.55534
62.25000,-10.37478,-6.55812
62.30000,-10.38331,-6.56136
62.35000,-10.39144,-6.56432
62.40000,-10.39984,-6.56682
62.45000,-10.40851,-6.57172
62.50000,-10.41678,-6.57501
62.55000,-10.42491,-6.57525
62.60000,-10.43357,-6.57957
62.65000,-10.44184,-6.58186
62.70000,-10.44997,-6.58358
62.75000,-10.45851,-6.58642
62.80000,-10.46664,-6.58925
62.85000,-10.47504,-6.59107
62.90000,-10.48331,-6.59400
62.95000,-10.49157,-6.59617
63.00000,-10.49997,-6.59932
63.05000,-10.50824,-6.60107
63.10000,-10.51637,-6.60573
63.15000,-10.52491,-6.60625
63.20000,-10.53344,-6.61012
63.25000,-10.54144,-6.61276
63.30000,-10.54984,-6.61387
63.35000,-10.55837,-6.61723
63.40000,-10.56664,-6.61946
63.45000,-10.57477,-6.62314
63.50000,-10.58331,-6.62340
63.55000,-10.59171,-6.62921
63.60000,-10.59984,-6.62887
63.65000,-10.60824,-6.63439
63.70000,-10.61664,-6.63417
63.75000,-10.62491,-6.63953
63.80000,-10.63317,-6.63901
63.85000,-10.64144,-6.64388
63.90000,-10.64984,-6.64358
63.95000,-10.65811,-6.64928
64.00000,-10.66651,-6.64943
64.05000,-10.67491,-6.65402
64.10001,-10.68331,-6.65606
64.15000,-10.69144,-6.65869
64.20000,-10.69984,-6.66091
64.25000,-10.70837,-6.66414
64.30000,-10.71651,-6.66788
64.35001,-10.72477,-6.66798
64.40000,-10.73331,-6.67180
64.45000,-10.74171,-6.67458
64.50000,-10.74971,-6.67710
64.55000,-10.75824,-6.67861
64.60001,-10.76677,-6.68361
64.65000,-10.77491,-6.68511
64.70000,-10.78304,-6.68694
64.75000,-10.79171,-6.68989
64.80000,-10.79997,-6.69350
64.85001,-10.80824,-6.69531
64.90000,-10.81677,-6.70063
64.95000,-10.82504,-6.70082
65.00000,-10.83344,-6.70630
65.05000,-10.84171,-6.70568
65.10001,-10.85011,-6.70945
65.15000,-10.85851,-6.71083
65.20000,-10.86677,-6.71474
65.25000,-10.87477,-6.71487
65.30000,-10.88344,-6.71799
65.35001,-10.89171,-6.72046
65.40000,-10.89971,-6.72172
65.45000,-10.90811,-6.72244
65.50000,-10.91664,-6.72634
65.55000,-10.92477,-6.72843
65.60001,-10.93317,-6.73051
65.65000,-10.94184,-6.73369
65.70001,-10.94997,-6.73590
65.75000,-10.95824,-6.73768
65.80000,-10.96677,-6.73929
65.85001,-10.97504,-6.74316
65.90000,-10.98317,-6.74338
65.95001,-10.99171,-6.74706
66.00000,-10.99997,-6.74814
66.05000,-11.00824,-6.75165
66.10001,-11.01664,-6.75295
66.15000,-11.02477,-6.75668
66.20001,-11.03331,-6.75706
66.25000,-11.04157,-6.76178
66.30000,-11.04971,-6.76115
66.35001,-11.05824,-6.76443
66.40000,-11.06677,-6.76605
66.45001,-11.07491,-6.77185
66.50000,-11.08317,-6.77050
66.55000,-11.09184,-6.77542
66.60001,-11.09997,-6.77765
66.65000,-11.10824,-6.77846
66.70001,-11.11677,-6.78212
66.75000,-11.12504,-6.78321
66.80000,-11.13317,-6.78663
66.85001,-11.14157,-6.78572
66.90000,-11.14997,-6.79014
66.95001,-11.15811,-6.78904
67.00000,-11.16637,-6.79395
67.05000,-11.17477,-6.79233
67.10001,-11.18317,-6.79763
67.15000,-11.19131,-6.79707
67.20001,-11.19984,-6.80275
67.25000,-11.20824,-6.80162
67.30000,-11.21664,-6.80711
67.35001,-11.22491,-6.80770
67.40000,-11.23331,-6.81163
67.45001,-11.24184,-6.81130
67.50000,-11.24997,-6.81714
67.55000,-11.25824,-6.81473
67.60001,-11.26677,-6.82114
67.65000,-11.27504,-6.82003
67.70001,-11.28317,-6.82625
67.75000,-11.29144,-6.82280
67.80000,-11.29997,-6.82989
67.85001,-11.30797,-6.82786
67.90000,-11.31624,-6.83266
67.95001,-11.32491,-6.83394
68.00000,-11.33331,-6.83850
68.05000,-11.34144,-6.83900
68.10001,-11.34984,-6.84291
68.15000,-11.35837,-6.84455
68.20001,-11.36664,-6.84832
68.25000,-11.37491,-6.84983
68.30000,-11.38317,-6.85214
68.35001,-11.39171,-6.85374
68.40000,-11.39997,-6.85765
68.45001,-11.40811,-6.85996
68.50000,-11.41664,-6.86249
68.55000,-11.42504,-6.86516
68.60001,-11.43304,-6.86824
68.65000,-11.44157,-6.86962
68.70001,-11.44984,-6.87333
68.75000,-11.45811,-6.87511
68.80000,-11.46651,-6.87724
68.85001,-11.47517,-6.88028
68.90000,-11.48331,-6.88411
68.95001,-11.49144,-6.88512
69.00000,-11.50011,-6.88877
69.05000,-11.50850,-6.89092
69.10001,-11.51664,-6.89353
69.15000,-11.52504,-6.89526
69.20001,-11.53331,-6.89755
69.25000,-11.54157,-6.90012
69.30000,-11.54984,-6.90284
69.35001,-11.55811,-6.90455
69.40000,-11.56664,-6.90638
69.45001,-11.57491,-6.90969
69.50000,-11.58304,-6.91263
69.55000,-11.59157,-6.91375
69.60001,-11.59997,-6.91840
69.65000,-11.60811,-6.91994
69.70001,-11.61650,-6.92288
69.75000,-11.62517,-6.92545
69.80000,-11.63344,-6.92986
69.85001,-11.64157,-6.93058
69.90000,-11.65011,-6.93375
69.95001,-11.65850,-6.93623
70.00000,-11.66650,-6.93926
70.05000,-11.67491,-6.94025
70.10001,-11.68330,-6.94431
70.15000,-11.69157,-6.94508
70.20001,-11.69984,-6.94935
70.25000,-11.70824,-6.95005
70.30000,-11.71650,-6.95395
70.35001,-11.72491,-6.95467
70.40000,-11.73330,-6.95992
70.45001,-11.74157,-6.95943
70.50000,-11.75010,-6.96659
70.55000,-11.75824,-6.96319
70.60001,-11.76664,-6.97327
70.65000,-11.77517,-6.96916
70.70001,-11.78330,-6.97929
70.75000,-11.79157,-6.97377
70.80000,-11.79997,-6.98172
70.85001,-11.80850,-6.98128
70.90000,-11.81650,-6.98668
70.95001,-11.82490,-6.98534
71.00000,-11.83330,-6.98984
71.05000,-11.84144,-6.99373
71.10001,-11.84970,-6.99199
71.15000,-11.85824,-7.00006
71.20001,-11.86650,-6.99906
71.25000,-11.87490,-7.00553
71.30000,-11.88330,-7.00623
71.35001,-11.89157,-7.01158
71.40000,-11.89997,-7.01100
71.45001,-11.90824,-7.02093
71.50000,-11.91664,-7.01461
71.55000,-11.92504,-7.02624
71.60001,-11.93330,-7.02251
71.65000,-11.94144,-7.03023
71.70001,-11.95010,-7.02971
71.75000,-11.95837,-7.03610
71.80000,-11.96650,-7.03593
71.85001,-11.97504,-7.03977
71.90000,-11.98330,-7.04644
71.95001,-11.99144,-7.03896
72.00000,-11.99984,-7.05505
72.05000,-12.00837,-7.04485
72.10001,-12.01664,-7.06238
72.15000,-12.02490,-7.05219
72.20001,-12.03344,-7.06542
72.25000,-12.04170,-7.06198
72.30000,-12.04997,-7.07140
72.35001,-12.05837,-7.06660
72.40000,-12.06677,-7.07846
72.45001,-12.07490,-7.07171
72.50000,-12.08330,-7.08385
72.55000,-12.09157,-7.07840
72.60001,-12.10010,-7.08845
72.65000,-12.10837,-7.08680
72.70001,-12.11650,-7.09259
72.75000,-12.12490,-7.09229
72.80000,-12.13330,-7.09758
72.85001,-12.14144,-7.10382
72.90000,-12.14984,-7.09661
72.95001,-12.15837,-7.11435
73.00000,-12.16664,-7.10444
73.05000,-12.17490,-7.11845
73.10001,-12.18344,-7.11206
73.15000,-12.19170,-7.12554
73.20001,-12.19984,-7.11780
73.25000,-12.20810,-7.12924
73.30000,-12.21650,-7.12369
73.35001,-12.22477,-7.13640
73.40000,-12.23304,-7.13229
73.45001,-12.24157,-7.14055
73.50000,-12.24984,-7.14072
73.55000,-12.25810,-7.14458
73.60001,-12.26650,-7.14857
73.65000,-12.27490,-7.14825
73.70001,-12.28330,-7.15589
73.75000,-12.29157,-7.15406
73.80000,-12.29984,-7.16297
73.85001,-12.30837,-7.15577
73.90000,-12.31664,-7.17782
73.95001,-12.32477,-7.15946
74.00000,-12.33330,-7.18209
74.05000,-12.34170,-7.16848
74.10001,-12.34984,-7.18742
74.15000,-12.35824,-7.17508
74.20001,-12.36664,-7.19208
74.25000,-12.37477,-7.18073
74.30000,-12.38304,-7.19999
74.35001,-12.39170,-7.18369
74.40000,-12.39997,-7.21112
74.45001,-12.40837,-7.19100
74.50000,-12.41677,-7.21696
74.55000,-12.42504,-7.19982
74.60001,-12.43344,-7.21950
74.65000,-12.44184,-7.20979
74.70001,-12.45010,-7.22278
74.75000,-12.45850,-7.21771
74.80000,-12.46677,-7.22840
74.85001,-12.47490,-7.22307
74.90000,-12.48344,-7.23295
74.95001,-12.49170,-7.22989
75.00000,-12.49984,-7.23919
75.05000,-12.50824,-7.23477
75.10001,-12.51650,-7.24368
75.15000,-12.52464,-7.24212
75.20001,-12.53317,-7.24821
75.25000,-12.54184,-7.25067
75.30000,-12.54997,-7.25515
75.35001,-12.55824,-7.25701
75.40000,-12.56690,-7.26013
75.45001,-12.57504,-7.26386
75.50000,-12.58330,-7.26547
75.55000,-12.59170,-7.26829
75.60001,-12.60010,-7.27076
75.65000,-12.60837,-7.27367
75.70001,-12.61664,-7.27638
75.75000,-12.62490,-7.27993
75.80000,-12.63344,-7.28175
75.85001,-12.64170,-7.28664
75.90000,-12.64970,-7.28663
75.95001,-12.65824,-7.28974
76.00000,-12.66664,-7.29381
76.05000,-12.67490,-7.29830
76.10001,-12.68330,-7.29926
76.15000,-12.69170,-7.30349
76.20001,-12.69997,-7.30768
76.25000,-12.70824,-7.30919
76.30000,-12.71664,-7.31137
76.35001,-12.72504,-7.31691
76.40000,-12.73317,-7.31799
76.45001,-12.74157,-7.32206
76.50000,-12.74997,-7.32405
76.55000,-12.75810,-7.32845
76.60001,-12.76637,-7.33007
76.65000,-12.77490,-7.33413
76.70001,-12.78317,-7.33644
76.75000,-12.79130,-7.33966
76.80000,-12.79984,-7.34313
76.85001,-12.80824,-7.34630
76.90000,-12.81663,-7.34958
76.95001,-12.82490,-7.35432
77.00000,-12.83330,-7.35515
77.05000,-12.84184,-7.35922
77.10001,-12.84997,-7.36343
77.15000,-12.85810,-7.36343
77.20001,-12.86663,-7.36668
77.25000,-12.87490,-7.36894
77.30000,-12.88304,-7.37236
77.35001,-12.89157,-7.37514
77.40000,-12.89997,-7.37431
77.45001,-12.90797,-7.38462
77.50000,-12.91637,-7.37619
77.55000,-12.92504,-7.38990
77.60001,-12.93330,-7.38566
77.65000,-12.94157,-7.39439
77.70001,-12.95010,-7.39319
77.75000,-12.95837,-7.39892
77.80000,-12.96663,-7.39772
77.85001,-12.97504,-7.40471
77.90000,-12.98330,-7.40044
77.95001,-12.99170,-7.41206
78.00000,-13.00010,-7.40502
78.05000,-13.00837,-7.41720
78.10001,-13.01677,-7.40925
78.15000,-13.02504,-7.42063
78.20001,-13.03304,-7.41492
78.25000,-13.04157,-7.42272
78.30000,-13.04997,-7.42132
78.35001,-13.05810,-7.42820
78.40000,-13.06650,-7.42551
78.45001,-13.07517,-7.43486
78.50000,-13.08330,-7.43437
78.55000,-13.09157,-7.43754
78.60001,-13.10010,-7.43974
78.65000,-13.10837,-7.44489
78.70001,-13.11650,-7.44433
78.75000,-13.12503,-7.45049
78.80000,-13.13343,-7.45008
78.85001,-13.14170,-7.45713
78.90000,-13.14997,-7.45316
78.95001,-13.15823,-7.46427
79.00000,-13.16663,-7.45589
79.05000,-13.17490,-7.46908
79.10001,-13.18303,-7.46368
79.15000,-13.19157,-7.47196
79.20001,-13.19997,-7.47110
79.25000,-13.20810,-7.47922
79.30000,-13.21637,-7.47633
79.35001,-13.22503,-7.48523
79.40000,-13.23330,-7.48357
79.45001,-13.24157,-7.49254
79.50000,-13.25010,-7.48686
79.55000,-13.25837,-7.49812
79.60001,-13.26663,-7.49283
79.65000,-13.27490,-7.50109
79.70001,-13.28343,-7.49849
79.75000,-13.29143,-7.50467
79.80000,-13.29970,-7.50278
79.85001,-13.30810,-7.50860
79.90000,-13.31637,-7.50789
79.95001,-13.32477,-7.51305
80.00000,-13.33317,-7.51484
80.05000,-13.34157,-7.51991
80.10001,-13.34997,-7.52017
80.15000,-13.35823,-7.52764
80.20001,-13.36663,-7.52420
80.25000,-13.37503,-7.53116
80.30000,-13.38330,-7.53161
80.35001,-13.39143,-7.53348
80.40000,-13.40010,-7.53541
80.45001,-13.40837,-7.53960
80.50001,-13.41650,-7.53992
80.55000,-13.42490,-7.54154
80.60001,-13.43330,-7.54409
80.65000,-13.44143,-7.54564
80.70001,-13.44957,-7.54768
80.75001,-13.45837,-7.54957
80.80000,-13.46663,-7.55349
80.85001,-13.47490,-7.55390
80.90000,-13.48330,-7.55820
80.95001,-13.49170,-7.55894
81.00001,-13.50010,-7.56289
81.05000,-13.50850,-7.56311
81.10001,-13.51677,-7.56744
81.15000,-13.52503,-7.56743
81.20001,-13.53330,-7.57136
81.25001,-13.54143,-7.57077
81.30000,-13.54997,-7.57540
81.35001,-13.55837,-7.57605
81.40000,-13.56637,-7.58025
81.45001,-13.57490,-7.58014
81.50001,-13.58330,-7.58476
81.55000,-13.59143,-7.58470
81.60001,-13.59983,-7.58828
81.65000,-13.60850,-7.59089
81.70001,-13.61650,-7.59394
81.75001,-13.62477,-7.59375
81.80000,-13.63343,-7.59851
81.85001,-13.64170,-7.60122
81.90000,-13.64997,-7.60338
81.95001,-13.65837,-7.60584
82.00001,-13.66677,-7.60942
82.05000,-13.67490,-7.61030
82.10001,-13.68330,-7.61342
82.15000,-13.69157,-7.61537
82.20001,-13.69997,-7.61866
82.25001,-13.70823,-7.62156
82.30000,-13.71650,-7.62558
82.35001,-13.72503,-7.62626
82.40000,-13.73330,-7.63039
82.45001,-13.74157,-7.63301
82.50001,-13.74983,-7.63546
82.55000,-13.75837,-7.63850
82.60001,-13.76663,-7.64196
82.65000,-13.77490,-7.64367
82.70001,-13.78343,-7.64652
82.75001,-13.79170,-7.64998
82.80000,-13.79983,-7.65206
82.85001,-13.80810,-7.65497
82.90000,-13.81663,-7.65861
82.95001,-13.82477,-7.66079
83.00001,-13.83317,-7.66464
83.05000,-13.84157,-7.66656
83.10001,-13.84983,-7.66970
83.15000,-13.85810,-7.67295
83.20001,-13.86637,-7.67653
83.25001,-13.87490,-7.67909
83.30000,-13.88330,-7.68451
83.35001,-13.89157,-7.68890
83.40000,-13.89983,-7.69051
83.45001,-13.90837,-7.69573
83.50001,-13.91663,-7.69921
83.55000,-13.92477,-7.70135
83.60001,-13.93343,-7.70405
83.65000,-13.94170,-7.71174
83.70001,-13.94983,-7.71156
83.75001,-13.95810,-7.71506
83.80000,-13.96650,-7.71992
83.85001,-13.97463,-7.72310
83.90000,-13.98290,-7.72504
83.95001,-13.99157,-7.73063
84.00001,-13.99997,-7.73664
84.05000,-14.00823,-7.73835
84.10001,-14.01677,-7.74415
84.15000,-14.02503,-7.74690
84.20001,-14.03330,-7.75259
84.25001,-14.04170,-7.75461
84.30000,-14.05010,-7.76123
84.35001,-14.05850,-7.76267
84.40000,-14.06690,-7.77099
84.45001,-14.07490,-7.76990
84.50001,-14.08343,-7.77757
84.55000,-14.09170,-7.77916
84.60001,-14.09983,-7.78434
84.65000,-14.10837,-7.78448
84.70001,-14.11677,-7.79235
84.75001,-14.12477,-7.79164
84.80000,-14.13317,-7.79651
84.85001,-14.14183,-7.79893
84.90000,-14.14997,-7.80460
84.95001,-14.15837,-7.80509
85.00001,-14.16690,-7.81085
85.05000,-14.17503,-7.81372
85.10001,-14.18330,-7.81688
85.15000,-14.19183,-7.82083
85.20001,-14.20010,-7.82401
85.25001,-14.20837,-7.82799
85.30000,-14.21663,-7.82900
85.35001,-14.22490,-7.83527
85.40000,-14.23330,-7.83551
85.45001,-14.24170,-7.84050
85.50001,-14.24983,-7.84425
85.55000,-14.25823,-7.84548
85.60001,-14.26663,-7.85039
85.65000,-14.27490,-7.85356
85.70001,-14.28317,-7.85593
85.75001,-14.29183,-7.85924
85.80000,-14.29997,-7.86378
85.85001,-14.30823,-7.86518
85.90000,-14.31663,-7.86855
85.95001,-14.32503,-7.87412
86.00001,-14.33317,-7.87410
86.05000,-14.34156,-7.88019
86.10001,-14.34997,-7.88147
86.15000,-14.35810,-7.88396
86.20001,-14.36637,-7.88751
86.25001,-14.37476,-7.89044
86.30000,-14.38303,-7.89348
86.35001,-14.39130,-7.89732
86.40000,-14.39970,-7.90272
86.45001,-14.40823,-7.90523
86.50001,-14.41650,-7.90984
86.55000,-14.42476,-7.91205
86.60001,-14.43317,-7.91588
86.65000,-14.44170,-7.91988
86.70001,-14.44996,-7.92349
86.75001,-14.45810,-7.92619
86.80000,-14.46676,-7.92862
86.85001,-14.47503,-7.93405
86.90000,-14.48303,-7.93398
86.95001,-14.49156,-7.93744
87.00001,-14.49996,-7.94128
87.05000,-14.50810,-7.94500
87.10001,-14.51636,-7.94725
87.15000,-14.52503,-7.95241
87.20001,-14.53330,-7.95482
87.25001,-14.54156,-7.95885
87.30000,-14.55010,-7.96094
87.35001,-14.55850,-7.96625
87.40000,-14.56663,-7.96744
87.45001,-14.57516,-7.97284
87.50001,-14.58343,-7.97481
87.55000,-14.59170,-7.97378
87.60001,-14.60010,-7.98161
87.65000,-14.60823,-7.98260
87.70001,-14.61676,-7.98999
87.75001,-14.62503,-7.98637
87.80000,-14.63316,-7.99550
87.85001,-14.64156,-7.99236
87.90000,-14.64996,-8.00114
87.95001,-14.65796,-8.00143
88.00001,-14.66650,-8.00289
88.05000,-14.67516,-8.00892
88.10001,-14.68316,-8.01040
88.15000,-14.69143,-8.01241
88.20001,-14.69996,-8.01608
88.25001,-14.70823,-8.02064
88.30000,-14.71650,-8.02182
88.35001,-14.72503,-8.02557
88.40000,-14.73343,-8.02933
88.45001,-14.74170,-8.03107
88.50001,-14.75010,-8.03703
88.55000,-14.75823,-8.03592
88.60001,-14.76663,-8.04110
88.65000,-14.77503,-8.04322
88.70001,-14.78303,-8.04620
88.75001,-14.79156,-8.04834
88.80000,-14.79996,-8.05376
88.85001,-14.80810,-8.05646
88.90000,-14.81650,-8.05978
88.95001,-14.82516,-8.06530
89.00001,-14.83330,-8.07074
89.05000,-14.84156,-8.07333
89.10001,-14.84996,-8.07657
89.15000,-14.85836,-8.08173
89.20001,-14.86650,-8.08387
89.25001,-14.87476,-8.08540
89.30000,-14.88330,-8.09153
89.35001,-14.89143,-8.09274
89.40000,-14.89970,-8.09793
89.45001,-14.90810,-8.10016
89.50001,-14.91650,-8.10652
89.55000,-14.92476,-8.10586
89.60001,-14.93316,-8.11580
89.65000,-14.94170,-8.11584
89.70001,-14.94996,-8.12456
89.75001,-14.95823,-8.12711
89.80000,-14.96663,-8.12950
89.85001,-14.97516,-8.13402
89.90000,-14.98330,-8.13927
89.95001,-14.99143,-8.14411
90.00001,-15.00010,-8.14806
90.05000,-15.00836,-8.15482
90.10001,-15.01636,-8.15635
90.15000,-15.02490,-8.15919
90.20001,-15.03330,-8.16750
90.25001,-15.04143,-8.17135
90.28401,-15.04703,-8.17374
