Time,Extension,Load
(sec),(mm),(N)
0.00000,0.00000,-0.26525
0.05000,-0.00120,-0.26414
0.10000,-0.00600,-0.26957
0.15000,-0.01520,-0.27883
0.20000,-0.02560,-0.29408
0.25000,-0.03587,-0.30787
0.30000,-0.04533,-0.31946
0.35000,-0.05507,-0.33022
0.40000,-0.06427,-0.34220
0.45000,-0.07307,-0.35181
0.50000,-0.08213,-0.36041
0.55000,-0.09093,-0.37199
0.60000,-0.09920,-0.37922
0.65000,-0.10787,-0.38950
0.70000,-0.11653,-0.39594
0.75000,-0.12480,-0.40754
0.80000,-0.13320,-0.41308
0.85000,-0.14173,-0.42429
0.90000,-0.15000,-0.42975
0.95000,-0.15813,-0.44052
1.00000,-0.16667,-0.44626
1.05000,-0.17507,-0.45761
1.10000,-0.18333,-0.46249
1.15000,-0.19147,-0.47331
1.20000,-0.19987,-0.47917
1.25000,-0.20840,-0.48929
1.30000,-0.21680,-0.49536
1.35000,-0.22493,-0.50574
1.40000,-0.23347,-0.51077
1.45000,-0.24187,-0.52171
1.50000,-0.24987,-0.52701
1.55000,-0.25840,-0.53788
1.60000,-0.26707,-0.54279
1.65000,-0.27507,-0.55372
1.70000,-0.28333,-0.55831
1.75000,-0.29173,-0.56845
1.80000,-0.30000,-0.57568
1.85000,-0.30813,-0.58255
1.90000,-0.31653,-0.59208
1.95000,-0.32480,-0.59796
2.00000,-0.33320,-0.60779
2.05000,-0.34160,-0.61323
2.10000,-0.34987,-0.62380
2.15000,-0.35840,-0.62918
2.20000,-0.36680,-0.63955
2.25000,-0.37493,-0.64480
2.30000,-0.38333,-0.65424
2.35000,-0.39173,-0.65948
2.40000,-0.39987,-0.67016
2.45000,-0.40827,-0.67482
2.50000,-0.41680,-0.68552
2.55000,-0.42480,-0.69092
2.60000,-0.43307,-0.70039
2.65000,-0.44173,-0.70604
2.70000,-0.45000,-0.71563
2.75000,-0.45800,-0.72129
2.80000,-0.46653,-0.73246
2.85000,-0.47507,-0.73582
2.90000,-0.48333,-0.74726
2.95000,-0.49173,-0.75217
3.00000,-0.50027,-0.76332
3.05000,-0.50840,-0.76589
3.10000,-0.51680,-0.77846
3.15000,-0.52520,-0.78250
3.20000,-0.53360,-0.79282
3.25000,-0.54187,-0.79767
3.30000,-0.55000,-0.80789
3.35000,-0.55827,-0.81234
3.40000,-0.56667,-0.82278
3.45000,-0.57493,-0.82830
3.50000,-0.58320,-0.83716
3.55000,-0.59173,-0.84474
3.60000,-0.60000,-0.85194
3.65000,-0.60827,-0.85861
3.70000,-0.61680,-0.86780
3.75000,-0.62533,-0.87516
3.80000,-0.63333,-0.88231
3.85000,-0.64173,-0.89053
3.90000,-0.65027,-0.89701
3.95000,-0.65840,-0.90753
4.00000,-0.66667,-0.91097
4.05000,-0.67520,-0.92141
4.10000,-0.68360,-0.92818
4.15000,-0.69173,-0.93691
4.20000,-0.70013,-0.94219
4.25000,-0.70853,-0.95145
4.30000,-0.71680,-0.95809
4.35000,-0.72493,-0.96707
4.40000,-0.73333,-0.97237
4.45000,-0.74186,-0.98074
4.50000,-0.75013,-0.98935
4.55000,-0.75840,-0.99639
4.60000,-0.76680,-1.00333
4.65000,-0.77533,-1.01163
4.70000,-0.78333,-1.01944
4.75000,-0.79173,-1.02638
4.80000,-0.80013,-1.03360
4.85000,-0.80813,-1.04101
4.90000,-0.81653,-1.04925
4.95000,-0.82506,-1.05538
5.00000,-0.83320,-1.06256
5.05000,-0.84160,-1.07319
5.10000,-0.85000,-1.07732
5.15000,-0.85813,-1.08749
5.20000,-0.86653,-1.09236
5.25000,-0.87493,-1.10310
5.30000,-0.88320,-1.10757
5.35000,-0.89160,-1.11757
5.40000,-0.90000,-1.12241
5.45000,-0.90813,-1.13405
5.50000,-0.91666,-1.13673
5.55000,-0.92520,-1.14784
5.60000,-0.93333,-1.15424
5.65000,-0.94186,-1.16248
5.70000,-0.95040,-1.16952
5.75000,-0.95826,-1.17679
5.80000,-0.96653,-1.18464
5.85000,-0.97520,-1.19154
5.90000,-0.98320,-1.19978
5.95000,-0.99133,-1.20546
6.00000,-0.99986,-1.21533
6.05000,-1.00840,-1.22100
6.10000,-1.01666,-1.23029
6.15000,-1.02520,-1.23674
6.20000,-1.03360,-1.24313
6.25000,-1.04173,-1.25368
6.30000,-1.05000,-1.25751
6.35000,-1.05853,-1.26871
6.40000,-1.06693,-1.27254
6.45000,-1.07533,-1.28392
6.50000,-1.08346,-1.28750
6.55000,-1.09173,-1.29841
6.60000,-1.10026,-1.30323
6.65000,-1.10826,-1.31235
6.70000,-1.11653,-1.31785
6.75000,-1.12506,-1.32806
6.80000,-1.13320,-1.33108
6.85000,-1.14146,-1.34603
6.90000,-1.15013,-1.34470
6.95000,-1.15853,-1.36115
7.00000,-1.16666,-1.36055
7.05000,-1.17506,-1.37522
7.10000,-1.18360,-1.37616
7.15000,-1.19173,-1.38926
7.20000,-1.20000,-1.39249
7.25000,-1.20840,-1.40367
7.30000,-1.21680,-1.40590
7.35000,-1.22506,-1.42030
7.40000,-1.23346,-1.42058
7.45000,-1.24173,-1.43352
7.50000,-1.25000,-1.43543
7.55000,-1.25813,-1.44933
7.60000,-1.26653,-1.44912
7.65000,-1.27506,-1.46246
7.70000,-1.28320,-1.46687
7.75000,-1.29160,-1.47626
7.80000,-1.30013,-1.48057
7.85000,-1.30853,-1.49263
7.90000,-1.31666,-1.49548
7.95000,-1.32506,-1.50772
8.00000,-1.33373,-1.50862
8.05000,-1.34160,-1.52249
8.10000,-1.35000,-1.52392
8.15000,-1.35853,-1.53673
8.20000,-1.36666,-1.53804
8.25000,-1.37480,-1.55013
8.30000,-1.38320,-1.55598
8.35000,-1.39146,-1.56169
8.40000,-1.39986,-1.57008
8.45000,-1.40826,-1.57719
8.50000,-1.41666,-1.58636
8.55000,-1.42506,-1.59090
8.60000,-1.43346,-1.60016
8.65000,-1.44160,-1.60754
8.70000,-1.45013,-1.61439
8.75000,-1.45853,-1.62087
8.80000,-1.46653,-1.62978
8.85000,-1.47506,-1.63460
8.90000,-1.48360,-1.64482
8.95000,-1.49146,-1.64952
9.00000,-1.49986,-1.65562
9.05000,-1.50853,-1.66738
9.10000,-1.51653,-1.67135
9.15000,-1.52480,-1.67737
9.20000,-1.53333,-1.68731
9.25000,-1.54173,-1.69500
9.30000,-1.54986,-1.69761
9.35000,-1.55840,-1.71086
9.40000,-1.56680,-1.71198
9.45000,-1.57493,-1.72456
9.50000,-1.58333,-1.72751
9.55000,-1.59173,-1.73882
9.60000,-1.60026,-1.74288
9.65000,-1.60853,-1.75232
9.70000,-1.61666,-1.75760
9.75000,-1.62493,-1.76599
9.80000,-1.63346,-1.77035
9.85000,-1.64160,-1.78181
9.90000,-1.64986,-1.78288
9.95000,-1.65840,-1.79776
10.00000,-1.66666,-1.79356
10.05000,-1.67493,-1.81538
10.10000,-1.68360,-1.80676
10.15000,-1.69200,-1.83002
10.20000,-1.70013,-1.82078
10.25000,-1.70853,-1.84422
10.30000,-1.71693,-1.83641
10.35000,-1.72506,-1.85458
10.40000,-1.73346,-1.85310
10.45000,-1.74186,-1.86683
10.50000,-1.75013,-1.86690
10.55000,-1.75840,-1.88154
10.60000,-1.76666,-1.87614
10.65000,-1.77493,-1.90051
10.70000,-1.78333,-1.88716
10.75000,-1.79146,-1.91133
10.80000,-1.79973,-1.90601
10.85000,-1.80840,-1.92320
10.90000,-1.81666,-1.91970
10.95000,-1.82506,-1.93543
11.00000,-1.83360,-1.93698
11.05000,-1.84200,-1.94561
11.10000,-1.85000,-1.95315
11.15000,-1.85853,-1.95307
11.20000,-1.86693,-1.97302
11.25000,-1.87493,-1.96525
11.30000,-1.88333,-1.98329
11.35000,-1.89186,-1.97853
11.40000,-1.90000,-1.99996
11.45000,-1.90826,-1.98928
11.50000,-1.91666,-2.01204
11.55000,-1.92493,-2.00259
11.60000,-1.93306,-2.02640
11.65000,-1.94160,-2.01673
11.70000,-1.94986,-2.03381
11.75000,-1.95840,-2.03593
11.80000,-1.96680,-2.04621
11.85000,-1.97493,-2.04856
11.90000,-1.98346,-2.05816
11.95000,-1.99186,-2.06350
12.00000,-2.00000,-2.07151
12.05000,-2.00826,-2.07460
12.10000,-2.01680,-2.08365
12.15000,-2.02493,-2.08973
12.20000,-2.03319,-2.09574
12.25000,-2.04173,-2.10169
12.30000,-2.04986,-2.11068
12.35000,-2.05799,-2.11303
12.40000,-2.06653,-2.12179
12.45000,-2.07493,-2.12640
12.50000,-2.08319,-2.13652
12.55000,-2.09173,-2.13795
12.60000,-2.10026,-2.15079
12.65000,-2.10853,-2.15077
12.70000,-2.11693,-2.16366
12.75000,-2.12519,-2.16317
12.80000,-2.13346,-2.17691
12.85000,-2.14186,-2.17356
12.90000,-2.14999,-2.19175
12.95000,-2.15826,-2.18423
13.00000,-2.16666,-2.20235
13.05000,-2.17493,-2.20072
13.10000,-2.18333,-2.21221
13.15000,-2.19173,-2.21289
13.20000,-2.19999,-2.22558
13.25000,-2.20813,-2.22510
13.30000,-2.21679,-2.23727
13.35000,-2.22519,-2.23741
13.40000,-2.23333,-2.24961
13.45000,-2.24186,-2.24976
13.50000,-2.25039,-2.26196
13.55000,-2.25853,-2.26188
13.60000,-2.26679,-2.27328
13.65000,-2.27519,-2.27496
13.70000,-2.28346,-2.28401
13.75000,-2.29173,-2.28712
13.80000,-2.30013,-2.29551
13.85000,-2.30839,-2.29927
13.90000,-2.31666,-2.30669
13.95000,-2.32493,-2.31165
14.00000,-2.33319,-2.31745
14.05000,-2.34173,-2.32401
14.10000,-2.35013,-2.32918
14.15000,-2.35826,-2.33627
14.20000,-2.36693,-2.34069
14.25000,-2.37519,-2.34844
14.30000,-2.38333,-2.35244
14.35000,-2.39173,-2.35956
14.40000,-2.40026,-2.36461
14.45000,-2.40826,-2.37102
14.50000,-2.41666,-2.37583
14.55000,-2.42506,-2.38243
14.60000,-2.43333,-2.38678
14.65000,-2.44146,-2.39336
14.70000,-2.44986,-2.39831
14.75000,-2.45813,-2.40438
14.80000,-2.46653,-2.40978
14.85000,-2.47493,-2.41701
14.90000,-2.48333,-2.42095
14.95000,-2.49186,-2.42801
15.00000,-2.50013,-2.43237
15.05000,-2.50826,-2.43946
15.10000,-2.51679,-2.44299
15.15000,-2.52519,-2.45043
15.20000,-2.53319,-2.45519
15.25000,-2.54173,-2.46088
15.30000,-2.55026,-2.46664
15.35000,-2.55826,-2.47114
15.40000,-2.56653,-2.47770
15.45000,-2.57519,-2.48247
15.50000,-2.58319,-2.48752
15.55000,-2.59146,-2.49305
15.60000,-2.59999,-2.49838
15.65000,-2.60839,-2.50433
15.70000,-2.61653,-2.50917
15.75000,-2.62506,-2.51505
15.80000,-2.63346,-2.52075
15.85000,-2.64173,-2.52579
15.90000,-2.65013,-2.53081
15.95000,-2.65839,-2.53664
16.00000,-2.66679,-2.54243
16.05000,-2.67519,-2.54640
16.10000,-2.68333,-2.55308
16.15000,-2.69173,-2.55615
16.20000,-2.70013,-2.56299
16.25000,-2.70826,-2.56665
16.30000,-2.71653,-2.57278
16.35000,-2.72506,-2.57664
16.40000,-2.73319,-2.58330
16.45000,-2.74159,-2.58757
16.50000,-2.75026,-2.59235
16.55000,-2.75853,-2.59857
16.60000,-2.76666,-2.60309
16.65000,-2.77519,-2.60785
16.70000,-2.78359,-2.61346
16.75000,-2.79186,-2.61844
16.80000,-2.80026,-2.62309
16.85000,-2.80866,-2.62869
16.90000,-2.81693,-2.63211
16.95000,-2.82506,-2.63901
17.00000,-2.83333,-2.64111
17.05000,-2.84173,-2.64874
17.10000,-2.84999,-2.65165
17.15000,-2.85826,-2.65814
17.20000,-2.86653,-2.66100
17.25000,-2.87506,-2.66780
17.30000,-2.88333,-2.67098
17.35000,-2.89159,-2.67723
17.40000,-2.90013,-2.68053
17.45000,-2.90853,-2.68745
17.50000,-2.91666,-2.69049
17.55000,-2.92506,-2.69650
17.60000,-2.93359,-2.69973
17.65000,-2.94159,-2.70638
17.70000,-2.94999,-2.70865
17.75000,-2.95839,-2.71496
17.80000,-2.96653,-2.71815
17.85000,-2.97493,-2.72479
17.90000,-2.98333,-2.72695
17.95000,-2.99159,-2.73403
18.00000,-2.99986,-2.73676
18.05000,-3.00826,-2.74126
18.10000,-3.01653,-2.74656
18.15000,-3.02506,-2.75130
18.20000,-3.03346,-2.75445
18.25000,-3.04159,-2.75950
18.30000,-3.05013,-2.76466
18.35000,-3.05839,-2.76903
18.40000,-3.06653,-2.77232
18.45000,-3.07493,-2.77712
18.50000,-3.08373,-2.78148
18.55000,-3.09159,-2.78646
18.60000,-3.09986,-2.78858
18.65000,-3.10839,-2.79464
18.70000,-3.11639,-2.79794
18.75000,-3.12466,-2.79955
18.80000,-3.13333,-2.80941
18.85000,-3.14186,-2.81137
18.90000,-3.15013,-2.81041
18.95000,-3.15853,-2.82188
19.00000,-3.16693,-2.82280
19.05000,-3.17519,-2.82398
19.10000,-3.18359,-2.83018
19.15000,-3.19186,-2.83576
19.20000,-3.20013,-2.83239
19.25000,-3.20853,-2.80422
19.30000,-3.21666,-2.53687
19.35000,-3.22506,-2.55240
19.40000,-3.23346,-2.59759
19.45000,-3.24159,-2.60996
19.50000,-3.24986,-2.61942
19.55000,-3.25839,-2.63574
19.60000,-3.26653,-2.64833
19.65000,-3.27479,-2.66058
19.70000,-3.28346,-2.67802
19.75000,-3.29186,-2.68541
19.80000,-3.29999,-2.69473
19.85000,-3.30853,-2.70945
19.90000,-3.31693,-2.71362
19.95000,-3.32506,-2.73100
20.00000,-3.33346,-2.73301
20.05000,-3.34186,-2.74456
20.10000,-3.34999,-2.75131
20.15000,-3.35813,-2.76083
20.20000,-3.36653,-2.76869
20.25000,-3.37493,-2.77177
20.30000,-3.38319,-2.78607
20.35000,-3.39146,-2.78900
20.40000,-3.39973,-2.79768
20.45000,-3.40839,-2.80188
20.50000,-3.41679,-2.81164
20.55000,-3.42493,-2.81728
20.60000,-3.43346,-2.82320
20.65000,-3.44186,-2.83042
20.70000,-3.44986,-2.83286
20.75000,-3.45839,-2.84294
20.80000,-3.46692,-2.84280
20.85000,-3.47506,-2.85828
20.90000,-3.48332,-2.85263
20.95000,-3.49186,-2.86484
21.00000,-3.49999,-2.86754
21.05000,-3.50826,-2.87387
21.10000,-3.51666,-2.87566
21.15000,-3.52479,-2.88543
21.20000,-3.53306,-2.88719
21.25000,-3.54159,-2.89149
21.30000,-3.54986,-2.89739
21.35000,-3.55839,-2.90274
21.40000,-3.56666,-2.90544
21.45000,-3.57492,-2.91342
21.50000,-3.58346,-2.91393
21.55000,-3.59186,-2.92164
21.60000,-3.59999,-2.92469
21.65000,-3.60826,-2.92598
21.70000,-3.61692,-2.93374
21.75000,-3.62492,-2.93722
21.80000,-3.63319,-2.94267
21.85000,-3.64172,-2.94087
21.90000,-3.64986,-2.95109
21.95000,-3.65812,-2.95092
22.00000,-3.66666,-2.95842
22.05000,-3.67492,-2.95873
22.10000,-3.68319,-2.96278
22.15000,-3.69172,-2.96881
22.20000,-3.70012,-2.97104
22.25000,-3.70839,-2.97554
22.30000,-3.71679,-2.97980
22.35000,-3.72506,-2.98304
22.40000,-3.73346,-2.98709
22.45000,-3.74186,-2.98959
22.50000,-3.75012,-2.99721
22.55000,-3.75839,-2.99459
22.60000,-3.76666,-3.00332
22.65000,-3.77479,-3.00378
22.70000,-3.78306,-3.00767
22.75000,-3.79172,-3.01317
22.80000,-3.79999,-3.01496
22.85000,-3.80826,-3.01994
22.90000,-3.81692,-3.02256
22.95000,-3.82532,-3.02691
23.00000,-3.83346,-3.02934
23.05000,-3.84186,-3.03637
23.10000,-3.85026,-3.03095
23.15000,-3.85839,-3.04346
23.20000,-3.86679,-3.03999
23.25000,-3.87519,-3.04789
23.30000,-3.88346,-3.04697
23.35000,-3.89172,-3.05337
23.40000,-3.90012,-3.05258
23.45000,-3.90852,-3.06286
23.50000,-3.91679,-3.05633
23.55000,-3.92492,-3.06984
23.60000,-3.93319,-3.06117
23.65000,-3.94186,-3.07657
23.70000,-3.95012,-3.06895
23.75000,-3.95826,-3.08246
23.80000,-3.96692,-3.07367
23.85000,-3.97532,-3.09062
23.90000,-3.98332,-3.08091
23.95000,-3.99186,-3.09354
24.00000,-4.00039,-3.08932
24.05000,-4.00839,-3.10089
24.10000,-4.01666,-3.09328
24.15000,-4.02506,-3.10620
24.20000,-4.03332,-3.10085
24.25000,-4.04146,-3.10912
24.30000,-4.04986,-3.10893
24.35000,-4.05826,-3.11342
24.40000,-4.06652,-3.11607
24.45000,-4.07492,-3.11839
24.50000,-4.08319,-3.12438
24.55000,-4.09172,-3.12236
24.60000,-4.10012,-3.13239
24.65000,-4.10826,-3.12724
24.70000,-4.11679,-3.13286
24.75000,-4.12519,-3.14424
24.80000,-4.13332,-3.13895
24.85000,-4.14172,-3.13774
24.90000,-4.15026,-3.15145
24.95000,-4.15812,-3.14382
25.00000,-4.16652,-3.15435
25.05000,-4.17519,-3.15362
25.10000,-4.18332,-3.15691
25.15000,-4.19146,-3.15738
25.20000,-4.19999,-3.16620
25.25000,-4.20839,-3.16015
25.30000,-4.21652,-3.17207
25.35000,-4.22506,-3.16645
25.40000,-4.23359,-3.17483
25.45000,-4.24186,-3.17988
25.50000,-4.25012,-3.17809
25.55000,-4.25839,-3.18087
25.60000,-4.26679,-3.18512
25.65000,-4.27519,-3.18512
25.70000,-4.28332,-3.19087
25.75000,-4.29172,-3.19190
25.80000,-4.30026,-3.19289
25.85000,-4.30826,-3.20041
25.90000,-4.31652,-3.19772
25.95000,-4.32506,-3.20109
26.00000,-4.33332,-3.20804
26.05000,-4.34159,-3.20568
26.10000,-4.35012,-3.21082
26.15000,-4.35852,-3.21479
26.20000,-4.36666,-3.21242
26.25000,-4.37506,-3.22103
26.30000,-4.38359,-3.21787
26.35000,-4.39159,-3.22682
26.40000,-4.40012,-3.22296
26.45000,-4.40852,-3.23135
26.50000,-4.41679,-3.22856
26.55000,-4.42506,-3.23586
26.60000,-4.43332,-3.23552
26.65000,-4.44159,-3.24021
26.70000,-4.44986,-3.24135
26.75000,-4.45812,-3.24294
26.80000,-4.46652,-3.24963
26.85000,-4.47506,-3.24767
26.90000,-4.48346,-3.25383
26.95000,-4.49159,-3.25436
27.00000,-4.50026,-3.25966
27.05000,-4.50866,-3.25982
27.10000,-4.51666,-3.26407
27.15000,-4.52506,-3.26462
27.20000,-4.53359,-3.26997
27.25000,-4.54159,-3.27088
27.30000,-4.54999,-3.27430
27.35000,-4.55852,-3.27651
27.40000,-4.56666,-3.27852
27.45000,-4.57479,-3.28060
27.50000,-4.58319,-3.28632
27.55000,-4.59146,-3.28474
27.60000,-4.59972,-3.29072
27.65000,-4.60812,-3.29109
27.70000,-4.61652,-3.29662
27.75000,-4.62506,-3.29807
27.80000,-4.63332,-3.30134
27.85000,-4.64159,-3.30251
27.90000,-4.65012,-3.30814
27.95000,-4.65852,-3.30940
28.00000,-4.66652,-3.31260
28.05000,-4.67492,-3.31532
28.10000,-4.68346,-3.31700
28.15000,-4.69146,-3.32177
28.20000,-4.69972,-3.32193
28.25000,-4.70839,-3.32652
28.30000,-4.71666,-3.32838
28.35000,-4.72479,-3.33212
28.40000,-4.73332,-3.33393
28.45000,-4.74172,-3.33856
28.50000,-4.74986,-3.33860
28.55000,-4.75826,-3.34527
28.60000,-4.76679,-3.34515
28.65000,-4.77506,-3.35075
28.70000,-4.78346,-3.35075
28.75000,-4.79172,-3.35688
28.80000,-4.80012,-3.35592
28.85000,-4.80852,-3.36343
28.90000,-4.81666,-3.36190
28.95000,-4.82506,-3.36797
29.00000,-4.83345,-3.36799
29.05000,-4.84159,-3.37332
29.10000,-4.84985,-3.37306
29.15000,-4.85839,-3.37823
29.20000,-4.86665,-3.37885
29.25000,-4.87479,-3.38320
29.30000,-4.88345,-3.38517
29.35000,-4.89199,-3.38959
29.40000,-4.89999,-3.39080
29.45000,-4.90852,-3.39453
29.50000,-4.91705,-3.39671
29.55000,-4.92519,-3.40054
29.60000,-4.93345,-3.40085
29.65000,-4.94185,-3.40540
29.70000,-4.95025,-3.40707
29.75000,-4.95839,-3.41057
29.80000,-4.96665,-3.41200
29.85000,-4.97505,-3.41428
29.90000,-4.98345,-3.41835
29.95000,-4.99172,-3.42032
30.00000,-4.99985,-3.42234
30.05000,-5.00839,-3.42387
30.10000,-5.01679,-3.42868
30.15000,-5.02492,-3.43006
30.20000,-5.03345,-3.43368
30.25000,-5.04185,-3.43572
30.30000,-5.04985,-3.43897
30.35000,-5.05839,-3.44037
30.40000,-5.06692,-3.44383
30.45000,-5.07505,-3.44680
30.50000,-5.08332,-3.44902
30.55000,-5.09172,-3.45073
30.60000,-5.09985,-3.45441
30.65000,-5.10812,-3.45598
30.70000,-5.11652,-3.46002
30.75000,-5.12479,-3.46063
30.80000,-5.13332,-3.46546
30.85000,-5.14172,-3.46690
30.90000,-5.14999,-3.47069
30.95000,-5.15852,-3.47220
31.00000,-5.16679,-3.47636
31.05000,-5.17492,-3.47746
31.10000,-5.18345,-3.48082
31.15000,-5.19185,-3.48271
31.20000,-5.19985,-3.48580
31.25000,-5.20825,-3.48748
31.30000,-5.21692,-3.49068
31.35000,-5.22492,-3.49294
31.40000,-5.23319,-3.49509
31.45000,-5.24172,-3.49782
31.50000,-5.24985,-3.50001
31.55000,-5.25799,-3.50197
31.60000,-5.26652,-3.50427
31.65000,-5.27505,-3.50822
31.70000,-5.28319,-3.50976
31.75000,-5.29172,-3.51236
31.80000,-5.29999,-3.51547
31.85000,-5.30839,-3.51761
31.90000,-5.31679,-3.51987
31.95000,-5.32505,-3.52236
32.00000,-5.33359,-3.52567
32.05000,-5.34185,-3.52732
32.10000,-5.34999,-3.52976
32.15000,-5.35839,-3.53165
32.20000,-5.36679,-3.53487
32.25000,-5.37492,-3.53610
32.30000,-5.38332,-3.53828
32.35000,-5.39185,-3.54156
32.40000,-5.39999,-3.54383
32.45000,-5.40825,-3.54473
32.50000,-5.41692,-3.54891
32.55000,-5.42532,-3.55102
32.60000,-5.43332,-3.55280
32.65000,-5.44172,-3.55472
32.70000,-5.45039,-3.55816
32.75000,-5.45839,-3.55974
32.80000,-5.46679,-3.56201
32.85000,-5.47519,-3.56386
32.90000,-5.48359,-3.56690
32.95000,-5.49185,-3.56803
33.00000,-5.50012,-3.57062
33.05000,-5.50852,-3.57253
33.10000,-5.51679,-3.57464
33.15000,-5.52505,-3.57696
33.20000,-5.53319,-3.57784
33.25000,-5.54172,-3.58076
33.30000,-5.54999,-3.58286
33.35000,-5.55825,-3.58507
33.40000,-5.56679,-3.58647
33.45000,-5.57532,-3.58963
33.50000,-5.58332,-3.59152
33.55000,-5.59172,-3.59289
33.60000,-5.60025,-3.59484
33.65000,-5.60825,-3.59736
33.70000,-5.61665,-3.59920
33.75000,-5.62505,-3.60054
33.80000,-5.63319,-3.60227
33.85000,-5.64145,-3.60433
33.90000,-5.64999,-3.60618
33.95000,-5.65812,-3.60742
34.00000,-5.66652,-3.60860
34.05000,-5.67492,-3.61155
34.10000,-5.68319,-3.61266
34.15000,-5.69172,-3.61407
34.20000,-5.69999,-3.61726
34.25000,-5.70812,-3.61799
34.30000,-5.71679,-3.62026
34.35000,-5.72519,-3.62118
34.40000,-5.73332,-3.62498
34.45000,-5.74159,-3.62436
34.50000,-5.75025,-3.62798
34.55000,-5.75812,-3.62815
34.60000,-5.76639,-3.63009
34.65000,-5.77492,-3.63212
34.70000,-5.78305,-3.63365
34.75000,-5.79145,-3.63538
34.80000,-5.79999,-3.63691
34.85000,-5.80839,-3.63985
34.90000,-5.81665,-3.64070
34.95000,-5.82505,-3.64221
35.00000,-5.83359,-3.64477
35.05000,-5.84185,-3.64638
35.10000,-5.85012,-3.64747
35.15000,-5.85839,-3.64835
35.20000,-5.86692,-3.65091
35.25000,-5.87519,-3.65119
35.30000,-5.88332,-3.65420
35.35000,-5.89172,-3.65331
35.40000,-5.90012,-3.65743
35.45000,-5.90825,-3.65620
35.50000,-5.91652,-3.65908
35.55000,-5.92505,-3.65954
35.60000,-5.93332,-3.66225
35.65000,-5.94145,-3.66235
35.70000,-5.95012,-3.66444
35.75000,-5.95852,-3.66664
35.80000,-5.96665,-3.66683
35.85000,-5.97519,-3.66844
35.90000,-5.98372,-3.67036
35.95000,-5.99172,-3.67180
36.00000,-6.00012,-3.67231
36.05000,-6.00852,-3.67332
36.10000,-6.01679,-3.67529
36.15000,-6.02505,-3.67563
36.20000,-6.03332,-3.67813
36.25000,-6.04172,-3.67783
36.30000,-6.04999,-3.68025
36.35000,-6.05825,-3.68123
36.40000,-6.06652,-3.68240
36.45000,-6.07505,-3.68350
36.50000,-6.08332,-3.68517
36.55000,-6.09145,-3.68626
36.60000,-6.09998,-3.68728
36.65000,-6.10852,-3.68861
36.70000,-6.11652,-3.69073
36.75000,-6.12505,-3.69112
36.80000,-6.13359,-3.69282
36.85000,-6.14172,-3.69362
36.90000,-6.14998,-3.69555
36.95000,-6.15838,-3.69601
37.00000,-6.16665,-3.69773
37.05000,-6.17479,-3.69850
37.10000,-6.18332,-3.70054
37.15000,-6.19145,-3.70045
37.20000,-6.19972,-3.70279
37.25000,-6.20812,-3.70413
37.30000,-6.21652,-3.70648
37.35000,-6.22519,-3.70705
37.40000,-6.23345,-3.71015
37.45000,-6.24158,-3.71024
37.50000,-6.25012,-3.71190
37.55000,-6.25852,-3.71300
37.60000,-6.26652,-3.71508
37.65000,-6.27492,-3.71469
37.70000,-6.28358,-3.71704
37.75000,-6.29145,-3.71781
37.80000,-6.29972,-3.71917
37.85000,-6.30852,-3.71997
37.90000,-6.31665,-3.72211
37.95000,-6.32478,-3.72277
38.00000,-6.33332,-3.72467
38.05000,-6.34172,-3.72534
38.10000,-6.34985,-3.72748
38.15000,-6.35825,-3.72883
38.20000,-6.36678,-3.73004
38.25000,-6.37518,-3.73196
38.30000,-6.38345,-3.73302
38.35000,-6.39172,-3.73512
38.40000,-6.40012,-3.73498
38.45000,-6.40852,-3.73751
38.50000,-6.41665,-3.73812
38.55000,-6.42505,-3.73937
38.60000,-6.43345,-3.74071
38.65000,-6.44158,-3.74285
38.70000,-6.44985,-3.74267
38.75000,-6.45838,-3.74528
38.80000,-6.46678,-3.74658
38.85000,-6.47505,-3.74772
38.90000,-6.48358,-3.74932
38.95000,-6.49198,-3.75134
39.00000,-6.50012,-3.75153
39.05000,-6.50852,-3.75313
39.10000,-6.51705,-3.75488
39.15000,-6.52518,-3.75608
39.20000,-6.53345,-3.75686
39.25000,-6.54185,-3.75908
39.30000,-6.55025,-3.75963
39.35000,-6.55838,-3.76182
39.40000,-6.56678,-3.76191
39.45000,-6.57505,-3.76418
39.50000,-6.58332,-3.76423
39.55000,-6.59145,-3.76723
39.60000,-6.59985,-3.76748
39.65000,-6.60838,-3.76936
39.70000,-6.61665,-3.77129
39.75000,-6.62492,-3.77323
39.80000,-6.63345,-3.77324
39.85000,-6.64198,-3.77794
39.90000,-6.64998,-3.77515
39.95000,-6.65852,-3.78147
40.00000,-6.66705,-3.77776
40.05000,-6.67492,-3.78338
40.10000,-6.68332,-3.78205
40.15000,-6.69172,-3.78422
40.20000,-6.69985,-3.78338
40.25000,-6.70812,-3.78732
40.30000,-6.71652,-3.78579
40.35000,-6.72492,-3.78930
40.40000,-6.73318,-3.78969
40.45000,-6.74158,-3.79302
40.50000,-6.74985,-3.79124
40.55000,-6.75838,-3.79652
40.60000,-6.76678,-3.79498
40.65000,-6.77492,-3.80112
40.70000,-6.78345,-3.79778
40.75000,-6.79185,-3.80319
40.80000,-6.79985,-3.80174
40.85000,-6.80825,-3.80597
40.90000,-6.81692,-3.80327
40.95000,-6.82492,-3.80788
41.00000,-6.83318,-3.80682
41.05000,-6.84185,-3.80931
41.10000,-6.84985,-3.81064
41.15000,-6.85812,-3.81122
41.20000,-6.86665,-3.81363
41.25000,-6.87492,-3.81423
41.30000,-6.88318,-3.81703
41.35000,-6.89158,-3.81770
41.40000,-6.89998,-3.81966
41.45000,-6.90852,-3.82082
41.50000,-6.91678,-3.82228
41.55000,-6.92505,-3.82378
41.60000,-6.93345,-3.82441
41.65000,-6.94185,-3.82525
41.70000,-6.94998,-3.82732
41.75000,-6.95825,-3.82605
41.80000,-6.96665,-3.82874
41.85000,-6.97492,-3.82901
41.90000,-6.98318,-3.83095
41.95000,-6.99172,-3.83146
42.00000,-6.99998,-3.83416
42.05000,-7.00825,-3.83412
42.10000,-7.01678,-3.83644
42.15000,-7.02518,-3.83662
42.20000,-7.03332,-3.83834
42.25000,-7.04172,-3.83897
42.30000,-7.05038,-3.84004
42.35000,-7.05838,-3.84113
42.40000,-7.06678,-3.84229
42.45000,-7.07518,-3.84307
42.50000,-7.08345,-3.84312
42.55000,-7.09158,-3.84441
42.60000,-7.09998,-3.84499
42.65000,-7.10838,-3.84640
42.70000,-7.11678,-3.84719
42.75000,-7.12505,-3.84831
42.80000,-7.13332,-3.84850
42.85000,-7.14185,-3.85116
42.90000,-7.15012,-3.85021
42.95000,-7.15838,-3.85257
43.00000,-7.16692,-3.85195
43.05000,-7.17518,-3.85471
43.10000,-7.18318,-3.85240
43.15000,-7.19172,-3.85585
43.20000,-7.20025,-3.85471
43.25000,-7.20825,-3.85707
43.30000,-7.21665,-3.85570
43.35000,-7.22518,-3.85908
43.40000,-7.23332,-3.85789
43.45000,-7.24145,-3.85841
43.50000,-7.24985,-3.85919
43.55000,-7.25812,-3.86057
43.60000,-7.26652,-3.85954
43.65000,-7.27492,-3.86160
43.70000,-7.28318,-3.86188
43.75000,-7.29172,-3.86303
43.80000,-7.29998,-3.86245
43.85000,-7.30825,-3.86405
43.90000,-7.31678,-3.86403
43.95000,-7.32518,-3.86588
44.00000,-7.33318,-3.86545
44.05000,-7.34172,-3.86657
44.10000,-7.35025,-3.86709
44.15000,-7.35812,-3.86880
44.20000,-7.36638,-3.86648
44.25000,-7.37505,-3.87031
44.30000,-7.38318,-3.87010
44.35000,-7.39145,-3.87218
44.40000,-7.39998,-3.87105
44.45000,-7.40838,-3.87471
44.50000,-7.41665,-3.87393
44.55000,-7.42505,-3.87656
44.60000,-7.43345,-3.87483
44.65000,-7.44172,-3.87871
44.70000,-7.45011,-3.87724
44.75000,-7.45838,-3.87929
44.80000,-7.46678,-3.87905
44.85000,-7.47518,-3.88207
44.90000,-7.48332,-3.88140
44.95000,-7.49172,-3.88245
45.00000,-7.50025,-3.88342
45.05000,-7.50838,-3.88466
45.10000,-7.51665,-3.88414
45.15000,-7.52505,-3.88492
45.20000,-7.53318,-3.88628
45.25000,-7.54145,-3.88622
45.30000,-7.55025,-3.88740
45.35000,-7.55851,-3.88845
45.40000,-7.56665,-3.88921
45.45000,-7.57505,-3.88853
45.50000,-7.58372,-3.89004
45.55000,-7.59185,-3.88906
45.60000,-7.60025,-3.89165
45.65000,-7.60865,-3.88908
45.70000,-7.61678,-3.89354
45.75000,-7.62505,-3.88966
45.80000,-7.63331,-3.89450
45.85000,-7.64171,-3.89040
45.90000,-7.65011,-3.89528
45.95000,-7.65838,-3.89281
46.00000,-7.66651,-3.89609
46.05000,-7.67505,-3.89273
46.10000,-7.68318,-3.89775
46.15000,-7.69145,-3.89398
46.20000,-7.69998,-3.89864
46.25000,-7.70838,-3.89605
46.30000,-7.71651,-3.90081
46.35000,-7.72505,-3.89755
46.40000,-7.73358,-3.90275
46.45000,-7.74158,-3.90001
46.50000,-7.74985,-3.90308
46.55000,-7.75838,-3.90050
46.60000,-7.76651,-3.90500
46.65000,-7.77478,-3.90225
46.70000,-7.78331,-3.90572
46.75000,-7.79171,-3.90420
46.80000,-7.79998,-3.90861
46.85000,-7.80838,-3.90443
46.90000,-7.81665,-3.91046
46.95000,-7.82491,-3.90529
47.00000,-7.83331,-3.91052
47.05000,-7.84158,-3.90683
47.10000,-7.85011,-3.91088
47.15000,-7.85838,-3.90641
47.20000,-7.86651,-3.91213
47.25000,-7.87491,-3.90696
47.30000,-7.88358,-3.91211
47.35000,-7.89158,-3.90807
47.40000,-7.89985,-3.91222
47.45000,-7.90838,-3.90778
47.50000,-7.91651,-3.91192
47.55000,-7.92478,-3.90847
47.60000,-7.93331,-3.91254
47.65000,-7.94171,-3.91038
47.70000,-7.94985,-3.91275
47.75000,-7.95838,-3.91195
47.80000,-7.96678,-3.91398
47.85000,-7.97505,-3.91211
47.90000,-7.98345,-3.91472
47.95000,-7.99171,-3.91345
48.00000,-8.00011,-3.91497
48.05000,-8.00851,-3.91405
48.10000,-8.01678,-3.91693
48.15000,-8.02505,-3.91385
48.20000,-8.03358,-3.91788
48.25000,-8.04171,-3.91612
48.30000,-8.04985,-3.91740
48.35000,-8.05838,-3.91674
48.40000,-8.06665,-3.91958
48.45000,-8.07478,-3.91694
48.50000,-8.08345,-3.92056
48.55000,-8.09185,-3.91943
48.60000,-8.09998,-3.92251
48.65000,-8.10851,-3.92038
48.70000,-8.11705,-3.92445
48.75000,-8.12518,-3.92215
48.80000,-8.13345,-3.92540
48.85000,-8.14198,-3.92410
48.90000,-8.15011,-3.92614
48.95000,-8.15838,-3.92549
49.00000,-8.16678,-3.92770
49.05000,-8.17518,-3.92731
49.10000,-8.18345,-3.92970
49.15000,-8.19158,-3.92980
49.20000,-8.19998,-3.93078
49.25000,-8.20851,-3.93195
49.30000,-8.21665,-3.93385
49.35000,-8.22491,-3.93441
49.40000,-8.23358,-3.93596
49.45000,-8.24185,-3.93659
49.50000,-8.24998,-3.93954
49.55000,-8.25838,-3.93782
49.60000,-8.26691,-3.94190
49.65000,-8.27491,-3.94091
49.70000,-8.28331,-3.94448
49.75000,-8.29171,-3.94302
49.80000,-8.29985,-3.94715
49.85000,-8.30811,-3.94545
49.90000,-8.31651,-3.94932
49.95000,-8.32478,-3.94836
50.00000,-8.33305,-3.95045
50.05000,-8.34158,-3.95180
50.10000,-8.34985,-3.95367
50.15000,-8.35838,-3.95482
50.20000,-8.36678,-3.95648
50.25000,-8.37491,-3.95809
50.30000,-8.38358,-3.95815
50.35000,-8.39185,-3.96104
50.40000,-8.39985,-3.96063
50.45000,-8.40825,-3.96179
50.50000,-8.41678,-3.96240
50.55000,-8.42478,-3.96463
50.60000,-8.43305,-3.96393
50.65000,-8.44185,-3.96688
50.70000,-8.44985,-3.96676
50.75000,-8.45811,-3.96869
50.80000,-8.46665,-3.96819
50.85000,-8.47505,-3.97203
50.90000,-8.48331,-3.97137
50.95000,-8.49171,-3.97378
51.00000,-8.50011,-3.97432
51.05000,-8.50838,-3.97604
51.10000,-8.51678,-3.97670
51.15000,-8.52505,-3.97819
51.20000,-8.53345,-3.97836
51.25000,-8.54185,-3.98032
51.30000,-8.54998,-3.98013
51.35000,-8.55838,-3.98173
51.40000,-8.56678,-3.98147
51.45000,-8.57491,-3.98446
51.50000,-8.58318,-3.98332
51.55000,-8.59171,-3.98559
51.60000,-8.59998,-3.98684
51.65000,-8.60825,-3.98582
51.70000,-8.61691,-3.98949
51.75000,-8.62518,-3.98830
51.80000,-8.63331,-3.99090
51.85000,-8.64185,-3.99041
51.90000,-8.65038,-3.99359
51.95000,-8.65838,-3.99240
52.00000,-8.66678,-3.99348
52.05000,-8.67518,-3.99442
52.10000,-8.68345,-3.99352
52.15000,-8.69171,-3.99558
52.20000,-8.70011,-3.99510
52.25000,-8.70838,-3.99621
52.30000,-8.71678,-3.99658
52.35000,-8.72491,-3.99862
52.40000,-8.73318,-3.99789
52.45000,-8.74171,-4.00105
52.50000,-8.74998,-3.99990
52.55000,-8.75825,-4.00374
52.60000,-8.76691,-4.00245
52.65000,-8.77531,-4.00684
52.70000,-8.78331,-4.00457
52.75000,-8.79185,-4.00792
52.80000,-8.80038,-4.00697
52.85000,-8.80838,-4.01074
52.90000,-8.81665,-4.00818
52.95000,-8.82518,-4.01298
53.00000,-8.83331,-4.01111
53.05000,-8.84158,-4.01536
53.10000,-8.84998,-4.01288
53.15000,-8.85824,-4.01664
53.20000,-8.86651,-4.01428
53.25000,-8.87491,-4.01835
53.30000,-8.88318,-4.01703
53.35000,-8.89185,-4.02064
53.40000,-8.90011,-4.02084
53.45000,-8.90824,-4.02191
53.50000,-8.91678,-4.02233
53.55000,-8.92518,-4.02497
53.60000,-8.93318,-4.02408
53.65000,-8.94171,-4.02730
53.70000,-8.95038,-4.02685
53.75000,-8.95824,-4.03055
53.80000,-8.96651,-4.02894
53.85000,-8.97504,-4.03195
53.90000,-8.98318,-4.03212
53.95000,-8.99131,-4.03373
54.00000,-8.99985,-4.03411
54.05000,-9.00824,-4.03617
54.10000,-9.01651,-4.03682
54.15000,-9.02491,-4.03874
54.20000,-9.03331,-4.03972
54.25000,-9.04158,-4.04130
54.30000,-9.04998,-4.04228
54.35000,-9.05824,-4.04470
54.40000,-9.06665,-4.04425
54.45000,-9.07491,-4.04719
54.50000,-9.08304,-4.04715
54.55000,-9.09158,-4.04873
54.60000,-9.09998,-4.05030
54.65000,-9.10824,-4.05359
54.70000,-9.11651,-4.05357
54.75000,-9.12518,-4.05616
54.80000,-9.13331,-4.05763
54.85000,-9.14158,-4.05914
54.90000,-9.15024,-4.06079
54.95000,-9.15864,-4.06199
55.00000,-9.16664,-4.06375
55.05000,-9.17518,-4.06381
55.10000,-9.18371,-4.06687
55.15000,-9.19171,-4.06653
55.20000,-9.20011,-4.06881
55.25000,-9.20851,-4.07049
55.30000,-9.21678,-4.07187
55.35000,-9.22504,-4.07304
55.40000,-9.23331,-4.07464
55.45000,-9.24171,-4.07598
55.50000,-9.25011,-4.07818
55.55000,-9.25838,-4.07976
55.60000,-9.26664,-4.08160
55.65000,-9.27518,-4.08321
55.70000,-9.28344,-4.08617
55.75000,-9.29158,-4.08672
55.80000,-9.30024,-4.08880
55.85000,-9.30851,-4.09068
55.90000,-9.31664,-4.09194
55.95000,-9.32504,-4.09432
56.00000,-9.33358,-4.09577
56.05000,-9.34158,-4.09820
56.10000,-9.34998,-4.09880
56.15000,-9.35851,-4.10182
56.20000,-9.36664,-4.10270
56.25000,-9.37478,-4.10367
56.30000,-9.38331,-4.10471
56.35000,-9.39144,-4.10645
56.40000,-9.39984,-4.10762
56.45000,-9.40824,-4.11026
56.50000,-9.41664,-4.11137
56.55000,-9.42504,-4.11357
56.60000,-9.43344,-4.11547
56.65000,-9.44158,-4.11685
56.70000,-9.45011,-4.11737
56.75000,-9.45851,-4.12037
56.80000,-9.46651,-4.12173
56.85000,-9.47491,-4.12204
56.90000,-9.48358,-4.12495
56.95000,-9.49158,-4.12603
57.00000,-9.49971,-4.12636
57.05000,-9.50851,-4.12737
57.10000,-9.51651,-4.12973
57.15000,-9.52478,-4.12946
57.20000,-9.53331,-4.13050
57.25000,-9.54171,-4.13206
57.30000,-9.54984,-4.13309
57.35000,-9.55838,-4.13384
57.40000,-9.56678,-4.13584
57.45000,-9.57518,-4.13638
57.50000,-9.58344,-4.13852
57.55000,-9.59171,-4.13935
57.60000,-9.60011,-4.14044
57.65000,-9.60864,-4.14193
57.70000,-9.61664,-4.14357
57.75000,-9.62504,-4.14314
57.80000,-9.63344,-4.14489
57.85000,-9.64158,-4.14564
57.90000,-9.64984,-4.14667
57.95000,-9.65838,-4.14776
58.00000,-9.66664,-4.14932
58.05000,-9.67478,-4.14959
58.10000,-9.68344,-4.15111
58.15000,-9.69184,-4.15290
58.20000,-9.69984,-4.15350
58.25000,-9.70838,-4.15447
58.30000,-9.71691,-4.15668
58.35000,-9.72518,-4.15699
58.40000,-9.73344,-4.15825
58.45000,-9.74184,-4.15896
58.50000,-9.75011,-4.15960
58.55000,-9.75838,-4.15923
58.60000,-9.76664,-4.16121
58.65000,-9.77518,-4.16111
58.70000,-9.78344,-4.16379
58.75000,-9.79171,-4.16262
58.80000,-9.79984,-4.16491
58.85000,-9.80851,-4.16489
58.90000,-9.81678,-4.16679
58.95000,-9.82491,-4.16713
59.00000,-9.83344,-4.16769
59.05000,-9.84184,-4.16968
59.10000,-9.84984,-4.17038
59.15000,-9.85824,-4.17160
59.20000,-9.86704,-4.17273
59.25000,-9.87491,-4.17488
59.30000,-9.88318,-4.17410
59.35000,-9.89158,-4.17560
59.40000,-9.89971,-4.17607
59.45000,-9.90811,-4.17706
59.50000,-9.91651,-4.17908
59.55000,-9.92478,-4.18061
59.60000,-9.93318,-4.18107
59.65000,-9.94158,-4.18397
59.70000,-9.94984,-4.18398
59.75000,-9.95838,-4.18649
59.80000,-9.96678,-4.18717
59.85000,-9.97491,-4.18822
59.90000,-9.98344,-4.18956
59.95000,-9.99198,-4.19147
60.00000,-9.99984,-4.19244
60.05000,-10.00824,-4.19365
60.10000,-10.01691,-4.19583
60.15000,-10.02491,-4.19586
60.20000,-10.03318,-4.19778
60.25000,-10.04184,-4.19866
60.30000,-10.04984,-4.20144
60.35000,-10.05811,-4.20077
60.40000,-10.06664,-4.20373
60.45000,-10.07504,-4.20531
60.50000,-10.08318,-4.20775
60.55000,-10.09158,-4.20784
60.60000,-10.10011,-4.21088
60.65000,-10.10851,-4.21206
60.70000,-10.11678,-4.21344
60.75000,-10.12504,-4.21478
60.80000,-10.13358,-4.21575
60.85000,-10.14184,-4.21790
60.90000,-10.15011,-4.21906
60.95000,-10.15837,-4.21917
61.00000,-10.16678,-4.22209
61.05000,-10.17491,-4.22283
61.10000,-10.18318,-4.22380
61.15000,-10.19171,-4.22573
61.20000,-10.19998,-4.22783
61.25000,-10.20811,-4.22816
61.30000,-10.21678,-4.23106
61.35000,-10.22517,-4.23347
61.40000,-10.23331,-4.23466
61.45000,-10.24184,-4.23544
61.50000,-10.25037,-4.23861
61.55000,-10.25837,-4.23898
61.60000,-10.26678,-4.24078
61.65000,-10.27517,-4.24161
61.70000,-10.28358,-4.24447
61.75000,-10.29171,-4.24486
61.80000,-10.30011,-4.24773
61.85000,-10.30851,-4.24802
61.90000,-10.31678,-4.25066
61.95000,-10.32504,-4.25153
62.00000,-10.33317,-4.25324
62.05000,-10.34171,-4.25407
62.10000,-10.35011,-4.25817
62.15000,-10.35824,-4.25736
62.20000,-10.36678,-4.26059
62.25000,-10.37517,-4.26200
62.30000,-10.38331,-4.26552
62.35000,-10.39171,-4.26464
62.40000,-10.40024,-4.26769
62.45000,-10.40824,-4.26964
62.50000,-10.41651,-4.27173
62.55000,-10.42504,-4.27250
62.60000,-10.43331,-4.27615
62.65000,-10.44157,-4.27720
62.70000,-10.44997,-4.27998
62.75000,-10.45824,-4.28160
62.80000,-10.46651,-4.28303
62.85000,-10.47491,-4.28502
62.90000,-10.48317,-4.28624
62.95000,-10.49171,-4.28780
63.00000,-10.50011,-4.29127
63.05000,-10.50811,-4.29077
63.10000,-10.51677,-4.29308
63.15000,-10.52517,-4.29603
63.20000,-10.53331,-4.29683
63.25000,-10.54157,-4.29749
63.30000,-10.55011,-4.29986
63.35000,-10.55824,-4.30103
63.40000,-10.56651,-4.30220
63.45000,-10.57517,-4.30418
63.50000,-10.58331,-4.30536
63.55000,-10.59144,-4.30763
63.60000,-10.59997,-4.30793
63.65000,-10.60837,-4.31094
63.70000,-10.61664,-4.31183
63.75000,-10.62504,-4.31349
63.80000,-10.63344,-4.31574
63.85000,-10.64184,-4.31579
63.90000,-10.65011,-4.31808
63.95000,-10.65837,-4.31993
64.00000,-10.66691,-4.32072
64.05000,-10.67531,-4.32290
64.10001,-10.68331,-4.32454
64.15000,-10.69171,-4.32459
64.20000,-10.70024,-4.32726
64.25000,-10.70824,-4.32955
64.30000,-10.71637,-4.32842
64.35001,-10.72504,-4.33186
64.40000,-10.73331,-4.33394
64.45000,-10.74157,-4.33569
64.50000,-10.75011,-4.33745
64.55000,-10.75864,-4.33995
64.60001,-10.76677,-4.34151
64.65000,-10.77504,-4.34301
64.70000,-10.78371,-4.34565
64.75000,-10.79184,-4.34647
64.80000,-10.80011,-4.34900
64.85001,-10.80851,-4.34946
64.90000,-10.81691,-4.35277
64.95000,-10.82504,-4.35238
65.00000,-10.83331,-4.35522
65.05000,-10.84171,-4.35496
65.10001,-10.84997,-4.35819
65.15000,-10.85824,-4.35840
65.20000,-10.86651,-4.36205
65.25000,-10.87517,-4.36082
65.30000,-10.88344,-4.36617
65.35001,-10.89157,-4.36460
65.40000,-10.90011,-4.36928
65.45000,-10.90851,-4.36825
65.50000,-10.91651,-4.37290
65.55000,-10.92504,-4.37087
65.60001,-10.93357,-4.37577
65.65000,-10.94171,-4.37388
65.70001,-10.94997,-4.37815
65.75000,-10.95851,-4.37710
65.80000,-10.96664,-4.38045
65.85001,-10.97491,-4.38038
65.90000,-10.98317,-4.38257
65.95001,-10.99144,-4.38334
66.00000,-10.99984,-4.38569
66.05000,-11.00824,-4.38629
66.10001,-11.01651,-4.38877
66.15000,-11.02504,-4.39109
66.20001,-11.03331,-4.39158
66.25000,-11.04144,-4.39362
66.30000,-11.05011,-4.39514
66.35001,-11.05851,-4.39723
66.40000,-11.06651,-4.39858
66.45001,-11.07491,-4.40032
66.50000,-11.08344,-4.40196
66.55000,-11.09144,-4.40527
66.60001,-11.09984,-4.40591
66.65000,-11.10851,-4.40861
66.70001,-11.11664,-4.41214
66.75000,-11.12477,-4.41185
66.80000,-11.13331,-4.41501
66.85001,-11.14171,-4.41706
66.90000,-11.14997,-4.41869
66.95001,-11.15837,-4.42167
67.00000,-11.16677,-4.42341
67.05000,-11.17517,-4.42582
67.10001,-11.18344,-4.42755
67.15000,-11.19171,-4.42983
67.20001,-11.20024,-4.43122
67.25000,-11.20851,-4.43443
67.30000,-11.21651,-4.43582
67.35001,-11.22504,-4.43809
67.40000,-11.23344,-4.44113
67.45001,-11.24157,-4.44339
67.50000,-11.24984,-4.44491
67.55000,-11.25851,-4.44757
67.60001,-11.26664,-4.45123
67.65000,-11.27491,-4.45295
67.70001,-11.28344,-4.45442
67.75000,-11.29184,-4.45911
67.80000,-11.29997,-4.45926
67.85001,-11.30837,-4.46259
67.90000,-11.31704,-4.46536
67.95001,-11.32504,-4.46721
68.00000,-11.33331,-4.46797
68.05000,-11.34171,-4.47329
68.10001,-11.35011,-4.47246
68.15000,-11.35824,-4.47648
68.20001,-11.36664,-4.47795
68.25000,-11.37504,-4.48001
68.30000,-11.38331,-4.48164
68.35001,-11.39157,-4.48449
68.40000,-11.39984,-4.48581
68.45001,-11.40851,-4.48823
68.50000,-11.41677,-4.49089
68.55000,-11.42491,-4.49260
68.60001,-11.43344,-4.49387
68.65000,-11.44184,-4.49723
68.70001,-11.44997,-4.49905
68.75000,-11.45837,-4.50009
68.80000,-11.46691,-4.50152
68.85001,-11.47504,-4.50550
68.90000,-11.48331,-4.50536
68.95001,-11.49171,-4.50883
69.00000,-11.49984,-4.50697
69.05000,-11.50811,-4.51183
69.10001,-11.51650,-4.51476
69.15000,-11.52477,-4.51182
69.20001,-11.53317,-4.51942
69.25000,-11.54157,-4.51826
69.30000,-11.54984,-4.52083
69.35001,-11.55837,-4.52383
69.40000,-11.56664,-4.52537
69.45001,-11.57491,-4.52563
69.50000,-11.58344,-4.53165
69.55000,-11.59184,-4.53010
69.60001,-11.59984,-4.53273
69.65000,-11.60824,-4.53595
69.70001,-11.61691,-4.53410
69.75000,-11.62491,-4.54136
69.80000,-11.63317,-4.54005
69.85001,-11.64171,-4.54061
69.90000,-11.64984,-4.54575
69.95001,-11.65811,-4.54506
70.00000,-11.66650,-4.54818
70.05000,-11.67491,-4.55168
70.10001,-11.68317,-4.55074
70.15000,-11.69157,-4.55407
70.20001,-11.69997,-4.55624
70.25000,-11.70837,-4.55675
70.30000,-11.71677,-4.56040
70.35001,-11.72504,-4.56177
70.40000,-11.73344,-4.56069
70.45001,-11.74184,-4.56687
70.50000,-11.74984,-4.56467
70.55000,-11.75824,-4.56720
70.60001,-11.76677,-4.56864
70.65000,-11.77504,-4.57000
70.70001,-11.78330,-4.57218
70.75000,-11.79170,-4.57240
70.80000,-11.79997,-4.57403
70.85001,-11.80824,-4.57600
70.90000,-11.81677,-4.57685
70.95001,-11.82530,-4.57831
71.00000,-11.83330,-4.58385
71.05000,-11.84170,-4.57763
71.10001,-11.85037,-4.58568
71.15000,-11.85850,-4.58486
71.20001,-11.86677,-4.58467
71.25000,-11.87517,-4.58697
71.30000,-11.88344,-4.58886
71.35001,-11.89170,-4.58705
71.40000,-11.89997,-4.59412
71.45001,-11.90824,-4.58885
71.50000,-11.91677,-4.59345
71.55000,-11.92490,-4.59539
71.60001,-11.93317,-4.59484
71.65000,-11.94184,-4.59754
71.70001,-11.95010,-4.60216
71.75000,-11.95837,-4.59855
71.80000,-11.96690,-4.60622
71.85001,-11.97530,-4.60486
71.90000,-11.98330,-4.60663
71.95001,-11.99170,-4.60757
72.00000,-12.00024,-4.60931
72.05000,-12.00837,-4.61090
72.10001,-12.01664,-4.61342
72.15000,-12.02504,-4.61173
72.20001,-12.03330,-4.61707
72.25000,-12.04144,-4.61769
72.30000,-12.04997,-4.61824
72.35001,-12.05824,-4.62191
72.40000,-12.06650,-4.62256
72.45001,-12.07490,-4.62394
72.50000,-12.08317,-4.62756
72.55000,-12.09184,-4.62774
72.60001,-12.10010,-4.63125
72.65000,-12.10824,-4.63273
72.70001,-12.11677,-4.63272
72.75000,-12.12530,-4.63780
72.80000,-12.13330,-4.63752
72.85001,-12.14157,-4.63835
72.90000,-12.15024,-4.64092
72.95001,-12.15837,-4.64365
73.00000,-12.16650,-4.64301
73.05000,-12.17504,-4.64624
73.10001,-12.18317,-4.64499
73.15000,-12.19130,-4.64783
73.20001,-12.19997,-4.64842
73.25000,-12.20837,-4.64712
73.30000,-12.21664,-4.64898
73.35001,-12.22504,-4.64866
73.40000,-12.23344,-4.65104
73.45001,-12.24170,-4.65187
73.50000,-12.25010,-4.65349
73.55000,-12.25837,-4.65607
73.60001,-12.26677,-4.65768
73.65000,-12.27504,-4.65893
73.70001,-12.28317,-4.66292
73.75000,-12.29170,-4.66306
73.80000,-12.30024,-4.66509
73.85001,-12.30824,-4.66774
73.90000,-12.31650,-4.66907
73.95001,-12.32504,-4.66951
74.00000,-12.33317,-4.67365
74.05000,-12.34144,-4.67270
74.10001,-12.35024,-4.67845
74.15000,-12.35850,-4.67837
74.20001,-12.36664,-4.68110
74.25000,-12.37517,-4.68149
74.30000,-12.38370,-4.68548
74.35001,-12.39184,-4.68494
74.40000,-12.40010,-4.68865
74.45001,-12.40864,-4.68878
74.50000,-12.41690,-4.69160
74.55000,-12.42517,-4.69027
74.60001,-12.43344,-4.69501
74.65000,-12.44184,-4.69372
74.70001,-12.45024,-4.69694
74.75000,-12.45837,-4.69792
74.80000,-12.46664,-4.69986
74.85001,-12.47517,-4.70032
74.90000,-12.48330,-4.70426
74.95001,-12.49157,-4.70433
75.00000,-12.50024,-4.70842
75.05000,-12.50850,-4.71068
75.10001,-12.51650,-4.71233
75.15000,-12.52504,-4.71344
75.20001,-12.53357,-4.71768
75.25000,-12.54157,-4.71916
75.30000,-12.54984,-4.72074
75.35001,-12.55837,-4.72288
75.40000,-12.56650,-4.72712
75.45001,-12.57477,-4.72850
75.50000,-12.58317,-4.73202
75.55000,-12.59144,-4.73450
75.60001,-12.59997,-4.73841
75.65000,-12.60824,-4.73960
75.70001,-12.61650,-4.74297
75.75000,-12.62504,-4.74566
75.80000,-12.63330,-4.74959
75.85001,-12.64144,-4.75158
75.90000,-12.64997,-4.75495
75.95001,-12.65837,-4.75943
76.00000,-12.66650,-4.76117
76.05000,-12.67490,-4.76347
76.10001,-12.68357,-4.76665
76.15000,-12.69157,-4.76920
76.20001,-12.69984,-4.76941
76.25000,-12.70837,-4.77256
76.30000,-12.71650,-4.77471
76.35001,-12.72464,-4.77720
76.40000,-12.73330,-4.77837
76.45001,-12.74170,-4.78325
76.50000,-12.74997,-4.78541
76.55000,-12.75837,-4.78896
76.60001,-12.76677,-4.79124
76.65000,-12.77517,-4.79514
76.70001,-12.78357,-4.79769
76.75000,-12.79184,-4.80184
76.80000,-12.80024,-4.80236
76.85001,-12.80864,-4.80791
76.90000,-12.81677,-4.81008
76.95001,-12.82504,-4.81242
77.00000,-12.83344,-4.81517
77.05000,-12.84157,-4.81968
77.10001,-12.84984,-4.82033
77.15000,-12.85837,-4.82337
77.20001,-12.86663,-4.82667
77.25000,-12.87490,-4.82931
77.30000,-12.88357,-4.83250
77.35001,-12.89184,-4.83545
77.40000,-12.89997,-4.83675
77.45001,-12.90837,-4.83965
77.50000,-12.91704,-4.84318
77.55000,-12.92504,-4.84519
77.60001,-12.93343,-4.84741
77.65000,-12.94184,-4.85128
77.70001,-12.95024,-4.85251
77.75000,-12.95837,-4.85544
77.80000,-12.96663,-4.85836
77.85001,-12.97504,-4.86038
77.90000,-12.98330,-4.86344
77.95001,-12.99157,-4.86606
78.00000,-12.99970,-4.86817
78.05000,-13.00837,-4.87159
78.10001,-13.01663,-4.87501
78.15000,-13.02490,-4.87679
78.20001,-13.03343,-4.87936
78.25000,-13.04184,-4.88303
78.30000,-13.04997,-4.88491
78.35001,-13.05837,-4.88725
78.40000,-13.06690,-4.89077
78.45001,-13.07504,-4.89352
78.50000,-13.08330,-4.89542
78.55000,-13.09183,-4.89840
78.60001,-13.09997,-4.90056
78.65000,-13.10823,-4.90180
78.70001,-13.11663,-4.90478
78.75000,-13.12490,-4.90789
78.80000,-13.13317,-4.91076
78.85001,-13.14143,-4.91307
78.90000,-13.14983,-4.91608
78.95001,-13.15837,-4.92045
79.00000,-13.16677,-4.92309
79.05000,-13.17490,-4.92555
79.10001,-13.18357,-4.92844
79.15000,-13.19183,-4.93244
79.20001,-13.19997,-4.93381
79.25000,-13.20823,-4.93491
79.30000,-13.21677,-4.93853
79.35001,-13.22477,-4.94061
79.40000,-13.23317,-4.94150
79.45001,-13.24183,-4.94420
79.50000,-13.24983,-4.94810
79.55000,-13.25797,-4.94857
79.60001,-13.26663,-4.95152
79.65000,-13.27503,-4.95471
79.70001,-13.28330,-4.95767
79.75000,-13.29183,-4.95961
79.80000,-13.30023,-4.96275
79.85001,-13.30837,-4.96427
79.90000,-13.31677,-4.96770
79.95001,-13.32503,-4.96914
80.00000,-13.33357,-4.97233
80.05000,-13.34183,-4.97512
80.10001,-13.34997,-4.97803
80.15000,-13.35850,-4.97912
80.20001,-13.36690,-4.98353
80.25000,-13.37490,-4.98534
80.30000,-13.38317,-4.98691
80.35001,-13.39170,-4.98968
80.40000,-13.39997,-4.99325
80.45001,-13.40823,-4.99444
80.50001,-13.41690,-4.99861
80.55000,-13.42530,-5.00216
80.60001,-13.43330,-5.00472
80.65000,-13.44170,-5.00605
80.70001,-13.45023,-5.01014
80.75001,-13.45837,-5.01219
80.80000,-13.46677,-5.01542
80.85001,-13.47517,-5.01759
80.90000,-13.48357,-5.02082
80.95001,-13.49183,-5.02189
81.00001,-13.50010,-5.02607
81.05000,-13.50837,-5.02664
81.10001,-13.51663,-5.03040
81.15000,-13.52490,-5.03215
81.20001,-13.53317,-5.03401
81.25001,-13.54170,-5.03619
81.30000,-13.54997,-5.04083
81.35001,-13.55810,-5.04143
81.40000,-13.56677,-5.04657
81.45001,-13.57530,-5.04884
81.50001,-13.58330,-5.05350
81.55000,-13.59170,-5.05423
81.60001,-13.60023,-5.05991
81.65000,-13.60837,-5.06124
81.70001,-13.61663,-5.06558
81.75001,-13.62517,-5.06813
81.80000,-13.63330,-5.07229
81.85001,-13.64157,-5.07458
81.90000,-13.64997,-5.07924
81.95001,-13.65810,-5.08133
82.00001,-13.66637,-5.08523
82.05000,-13.67477,-5.08814
82.10001,-13.68317,-5.09262
82.15000,-13.69170,-5.09586
82.20001,-13.69997,-5.10180
82.25001,-13.70823,-5.10397
82.30000,-13.71663,-5.10879
82.35001,-13.72503,-5.11194
82.40000,-13.73317,-5.11633
82.45001,-13.74157,-5.11931
82.50001,-13.75023,-5.12470
82.55000,-13.75823,-5.12755
82.60001,-13.76650,-5.12994
82.65000,-13.77503,-5.13393
82.70001,-13.78317,-5.13733
82.75001,-13.79143,-5.14020
82.80000,-13.79997,-5.14459
82.85001,-13.80837,-5.14804
82.90000,-13.81650,-5.15288
82.95001,-13.82490,-5.15473
83.00001,-13.83343,-5.16175
83.05000,-13.84170,-5.16338
83.10001,-13.85010,-5.16990
83.15000,-13.85837,-5.17242
83.20001,-13.86677,-5.17630
83.25001,-13.87517,-5.18125
83.30000,-13.88330,-5.18394
83.35001,-13.89170,-5.18798
83.40000,-13.90010,-5.19202
83.45001,-13.90823,-5.19758
83.50001,-13.91650,-5.20033
83.55000,-13.92503,-5.20482
83.60001,-13.93330,-5.21028
83.65000,-13.94157,-5.21306
83.70001,-13.95023,-5.21912
83.75001,-13.95850,-5.22332
83.80000,-13.96663,-5.22743
83.85001,-13.97503,-5.23143
83.90000,-13.98357,-5.23654
83.95001,-13.99170,-5.24076
84.00001,-14.00010,-5.24475
84.05000,-14.00863,-5.25018
84.10001,-14.01677,-5.25397
84.15000,-14.02503,-5.25853
84.20001,-14.03330,-5.26279
84.25001,-14.04170,-5.26712
84.30000,-14.04997,-5.27198
84.35001,-14.05823,-5.27739
84.40000,-14.06650,-5.27976
84.45001,-14.07503,-5.28596
84.50001,-14.08343,-5.29082
84.55000,-14.09157,-5.29502
84.60001,-14.10010,-5.29897
84.65000,-14.10850,-5.30682
84.70001,-14.11663,-5.30833
84.75001,-14.12503,-5.31352
84.80000,-14.13357,-5.31713
84.85001,-14.14157,-5.32333
84.90000,-14.14997,-5.32541
84.95001,-14.15837,-5.33134
85.00001,-14.16663,-5.33487
85.05000,-14.17490,-5.34069
85.10001,-14.18330,-5.34327
85.15000,-14.19157,-5.34851
85.20001,-14.19983,-5.35200
85.25001,-14.20823,-5.35782
85.30000,-14.21650,-5.36163
85.35001,-14.22503,-5.36650
85.40000,-14.23330,-5.37273
85.45001,-14.24157,-5.37655
85.50001,-14.24997,-5.38079
85.55000,-14.25837,-5.38738
85.60001,-14.26650,-5.39144
85.65000,-14.27490,-5.39472
85.70001,-14.28356,-5.40107
85.75001,-14.29156,-5.40556
85.80000,-14.29983,-5.40789
85.85001,-14.30850,-5.41371
85.90000,-14.31650,-5.41897
85.95001,-14.32463,-5.42304
86.00001,-14.33317,-5.42677
86.05000,-14.34170,-5.43423
86.10001,-14.34997,-5.43944
86.15000,-14.35850,-5.44345
86.20001,-14.36676,-5.44901
86.25001,-14.37503,-5.45378
86.30000,-14.38343,-5.45919
86.35001,-14.39156,-5.46357
86.40000,-14.40010,-5.46863
86.45001,-14.40850,-5.47446
86.50001,-14.41663,-5.47976
86.55000,-14.42503,-5.48233
86.60001,-14.43343,-5.48799
86.65000,-14.44156,-5.49294
86.70001,-14.44996,-5.49635
86.75001,-14.45850,-5.50202
86.80000,-14.46663,-5.50748
86.85001,-14.47490,-5.51113
86.90000,-14.48343,-5.51684
86.95001,-14.49183,-5.52243
87.00001,-14.50010,-5.52668
87.05000,-14.50850,-5.53179
87.10001,-14.51703,-5.53830
87.15000,-14.52530,-5.54128
87.20001,-14.53356,-5.54738
87.25001,-14.54196,-5.55185
87.30000,-14.55023,-5.55616
87.35001,-14.55850,-5.56051
87.40000,-14.56676,-5.56589
87.45001,-14.57516,-5.56898
87.50001,-14.58343,-5.57467
87.55000,-14.59170,-5.57887
87.60001,-14.59996,-5.58251
87.65000,-14.60850,-5.58620
87.70001,-14.61676,-5.59076
87.75001,-14.62490,-5.59390
87.80000,-14.63343,-5.59850
87.85001,-14.64183,-5.60241
87.90000,-14.64996,-5.60617
87.95001,-14.65836,-5.60903
88.00001,-14.66690,-5.61538
88.05000,-14.67490,-5.61867
88.10001,-14.68330,-5.62310
88.15000,-14.69170,-5.62814
88.20001,-14.69983,-5.63323
88.25001,-14.70810,-5.63725
88.30000,-14.71650,-5.64219
88.35001,-14.72476,-5.64679
88.40000,-14.73303,-5.65116
88.45001,-14.74143,-5.65652
88.50001,-14.74983,-5.66252
88.55000,-14.75836,-5.66724
88.60001,-14.76663,-5.67405
88.65000,-14.77476,-5.67745
88.70001,-14.78343,-5.68357
88.75001,-14.79183,-5.68908
88.80000,-14.79983,-5.69418
88.85001,-14.80823,-5.69733
88.90000,-14.81690,-5.70490
88.95001,-14.82476,-5.70917
89.00001,-14.83303,-5.71177
89.05000,-14.84183,-5.71810
89.10001,-14.84996,-5.72466
89.15000,-14.85810,-5.72791
89.20001,-14.86663,-5.73277
89.25001,-14.87503,-5.73889
89.30000,-14.88330,-5.74407
89.35001,-14.89170,-5.74850
89.40000,-14.90023,-5.75485
89.45001,-14.90850,-5.76012
89.50001,-14.91690,-5.76604
89.55000,-14.92516,-5.77044
89.60001,-14.93356,-5.77508
89.65000,-14.94183,-5.78091
89.70001,-14.94996,-5.78550
89.75001,-14.95850,-5.78935
89.80000,-14.96690,-5.79498
89.85001,-14.97503,-5.80047
89.90000,-14.98330,-5.80320
89.95001,-14.99183,-5.80956
90.00001,-14.99983,-5.81409
90.05000,-15.00810,-5.81887
90.09801,-15.01650,-5.82415
