Time,Extension,Load
(sec),(mm),(N)
0.00000,-0.00027,-0.00674
0.05000,-0.00133,0.01186
0.10000,-0.00573,-0.00618
0.15000,-0.01467,-0.00181
0.20000,-0.02507,-0.01730
0.25000,-0.03547,-0.01335
0.30000,-0.04560,-0.03601
0.35000,-0.05493,-0.02360
0.40000,-0.06413,-0.04674
0.45000,-0.07333,-0.03566
0.50000,-0.08200,-0.05139
0.55000,-0.09080,-0.05114
0.60000,-0.09960,-0.05820
0.65000,-0.10800,-0.05715
0.70000,-0.11653,-0.06667
0.75000,-0.12493,-0.06517
0.80000,-0.13347,-0.07240
0.85000,-0.14187,-0.07463
0.90000,-0.15000,-0.07796
0.95000,-0.15840,-0.07823
1.00000,-0.16693,-0.09194
1.05000,-0.17493,-0.07601
1.10000,-0.18333,-0.10348
1.15000,-0.19200,-0.08238
1.20000,-0.20013,-0.10341
1.25000,-0.20840,-0.09647
1.30000,-0.21707,-0.10756
1.35000,-0.22533,-0.10068
1.40000,-0.23347,-0.11652
1.45000,-0.24200,-0.10742
1.50000,-0.25053,-0.12174
1.55000,-0.25853,-0.11751
1.60000,-0.26693,-0.12738
1.65000,-0.27533,-0.12433
1.70000,-0.28360,-0.13811
1.75000,-0.29187,-0.13027
1.80000,-0.30027,-0.14451
1.85000,-0.30867,-0.14176
1.90000,-0.31693,-0.14731
1.95000,-0.32520,-0.15370
2.00000,-0.33347,-0.15249
2.05000,-0.34200,-0.16167
2.10000,-0.35027,-0.16424
2.15000,-0.35853,-0.16424
2.20000,-0.36707,-0.17392
2.25000,-0.37560,-0.17396
2.30000,-0.38360,-0.17963
2.35000,-0.39200,-0.18246
2.40000,-0.40040,-0.18764
2.45000,-0.40853,-0.19191
2.50000,-0.41693,-0.19320
2.55000,-0.42533,-0.20052
2.60000,-0.43347,-0.20342
2.65000,-0.44173,-0.20640
2.70000,-0.45027,-0.21197
2.75000,-0.45840,-0.21501
2.80000,-0.46680,-0.22077
2.85000,-0.47520,-0.22141
2.90000,-0.48333,-0.23385
2.95000,-0.49187,-0.22312
3.00000,-0.50013,-0.24963
3.05000,-0.50827,-0.22600
3.10000,-0.51693,-0.25897
3.15000,-0.52533,-0.23811
3.20000,-0.53347,-0.26390
3.25000,-0.54187,-0.24803
3.30000,-0.55040,-0.27309
3.35000,-0.55827,-0.25774
3.40000,-0.56667,-0.27903
3.45000,-0.57533,-0.26987
3.50000,-0.58333,-0.28112
3.55000,-0.59160,-0.28768
3.60000,-0.60013,-0.28235
3.65000,-0.60853,-0.29698
3.70000,-0.61680,-0.29440
3.75000,-0.62533,-0.30536
3.80000,-0.63373,-0.30057
3.85000,-0.64200,-0.31739
3.90000,-0.65040,-0.30771
3.95000,-0.65867,-0.32688
4.00000,-0.66707,-0.31487
4.05000,-0.67533,-0.33795
4.10000,-0.68346,-0.31935
4.15000,-0.69200,-0.35321
4.20000,-0.70040,-0.32469
4.25000,-0.70840,-0.36049
4.30000,-0.71680,-0.34004
4.35000,-0.72533,-0.36151
4.40000,-0.73346,-0.35351
4.45000,-0.74173,-0.37054
4.50000,-0.75040,-0.36291
4.55000,-0.75866,-0.37881
4.60000,-0.76680,-0.37430
4.65000,-0.77533,-0.38749
4.70000,-0.78373,-0.38606
4.75000,-0.79186,-0.39337
4.80000,-0.80026,-0.39963
4.85000,-0.80866,-0.40253
4.90000,-0.81706,-0.40946
4.95000,-0.82533,-0.41005
5.00000,-0.83360,-0.42232
5.05000,-0.84200,-0.41877
5.10000,-0.85026,-0.43160
5.15000,-0.85853,-0.42986
5.20000,-0.86680,-0.43880
5.25000,-0.87533,-0.44306
5.30000,-0.88360,-0.44603
5.35000,-0.89173,-0.44926
5.40000,-0.90040,-0.46044
5.45000,-0.90880,-0.45640
5.50000,-0.91680,-0.46826
5.55000,-0.92533,-0.46892
5.60000,-0.93386,-0.47467
5.65000,-0.94186,-0.48019
5.70000,-0.95013,-0.48260
5.75000,-0.95880,-0.49055
5.80000,-0.96680,-0.49133
5.85000,-0.97506,-0.50190
5.90000,-0.98346,-0.49921
5.95000,-0.99173,-0.51006
6.00000,-1.00000,-0.51195
6.05000,-1.00840,-0.51791
6.10000,-1.01680,-0.52360
6.15000,-1.02520,-0.52667
6.20000,-1.03360,-0.53326
6.25000,-1.04186,-0.53758
6.30000,-1.05026,-0.54162
6.35000,-1.05866,-0.54824
6.40000,-1.06680,-0.55217
6.45000,-1.07520,-0.55640
6.50000,-1.08373,-0.56258
6.55000,-1.09160,-0.56702
6.60000,-1.10000,-0.57377
6.65000,-1.10866,-0.57269
6.70000,-1.11666,-0.58603
6.75000,-1.12493,-0.58385
6.80000,-1.13360,-0.59275
6.85000,-1.14186,-0.59606
6.90000,-1.15013,-0.60299
6.95000,-1.15866,-0.60550
7.00000,-1.16706,-0.61453
7.05000,-1.17520,-0.61714
7.10000,-1.18360,-0.62100
7.15000,-1.19186,-0.62928
7.20000,-1.20040,-0.63295
7.25000,-1.20880,-0.63793
7.30000,-1.21680,-0.64311
7.35000,-1.22533,-0.65185
7.40000,-1.23360,-0.64920
7.45000,-1.24173,-0.66386
7.50000,-1.25013,-0.65986
7.55000,-1.25866,-0.67304
7.60000,-1.26666,-0.67070
7.65000,-1.27493,-0.68320
7.70000,-1.28373,-0.68136
7.75000,-1.29200,-0.69333
7.80000,-1.30013,-0.69195
7.85000,-1.30880,-0.70342
7.90000,-1.31720,-0.70206
7.95000,-1.32520,-0.71439
8.00000,-1.33360,-0.71131
8.05000,-1.34200,-0.72444
8.10000,-1.35026,-0.72129
8.15000,-1.35853,-0.73405
8.20000,-1.36693,-0.73305
8.25000,-1.37533,-0.74335
8.30000,-1.38360,-0.74356
8.35000,-1.39173,-0.75316
8.40000,-1.40013,-0.75439
8.45000,-1.40866,-0.76454
8.50000,-1.41693,-0.76466
8.55000,-1.42520,-0.77651
8.60000,-1.43373,-0.77174
8.65000,-1.44213,-0.79085
8.70000,-1.45013,-0.78117
8.75000,-1.45866,-0.79994
8.80000,-1.46706,-0.79559
8.85000,-1.47506,-0.80696
8.90000,-1.48333,-0.80693
8.95000,-1.49186,-0.81669
9.00000,-1.50000,-0.81735
9.05000,-1.50826,-0.82560
9.10000,-1.51680,-0.82695
9.15000,-1.52493,-0.83650
9.20000,-1.53333,-0.83821
9.25000,-1.54186,-0.84631
9.30000,-1.55013,-0.85042
9.35000,-1.55866,-0.85616
9.40000,-1.56693,-0.86305
9.45000,-1.57506,-0.86584
9.50000,-1.58373,-0.87399
9.55000,-1.59213,-0.87835
9.60000,-1.60013,-0.88435
9.65000,-1.60866,-0.88884
9.70000,-1.61706,-0.89565
9.75000,-1.62506,-0.89949
9.80000,-1.63346,-0.90561
9.85000,-1.64200,-0.91003
9.90000,-1.65013,-0.91769
9.95000,-1.65826,-0.92011
10.00000,-1.66680,-0.92865
10.05000,-1.67520,-0.93088
10.10000,-1.68346,-0.93955
10.15000,-1.69200,-0.94134
10.20000,-1.70040,-0.94998
10.25000,-1.70866,-0.95284
10.30000,-1.71693,-0.96069
10.35000,-1.72520,-0.96289
10.40000,-1.73360,-0.97103
10.45000,-1.74213,-0.97375
10.50000,-1.75013,-0.98199
10.55000,-1.75866,-0.98328
10.60000,-1.76693,-0.99235
10.65000,-1.77506,-0.99438
10.70000,-1.78346,-1.00219
10.75000,-1.79200,-1.00540
10.80000,-1.80013,-1.01231
10.85000,-1.80853,-1.01636
10.90000,-1.81706,-1.02236
10.95000,-1.82533,-1.02909
11.00000,-1.83346,-1.03101
11.05000,-1.84200,-1.03852
11.10000,-1.85026,-1.04215
11.15000,-1.85853,-1.04875
11.20000,-1.86693,-1.05319
11.25000,-1.87533,-1.05906
11.30000,-1.88360,-1.06256
11.35000,-1.89200,-1.06996
11.40000,-1.90026,-1.07271
11.45000,-1.90866,-1.07937
11.50000,-1.91680,-1.08287
11.55000,-1.92506,-1.08913
11.60000,-1.93346,-1.09347
11.65000,-1.94186,-1.09790
11.70000,-1.95026,-1.10658
11.75000,-1.95853,-1.10606
11.80000,-1.96706,-1.11601
11.85000,-1.97546,-1.11801
11.90000,-1.98346,-1.12559
11.95000,-1.99186,-1.12732
12.00000,-2.00040,-1.13651
12.05000,-2.00840,-1.13669
12.10000,-2.01680,-1.14665
12.15000,-2.02546,-1.14760
12.20000,-2.03346,-1.15503
12.25000,-2.04173,-1.15640
12.30000,-2.05013,-1.16653
12.35000,-2.05839,-1.16667
12.40000,-2.06666,-1.17767
12.45000,-2.07520,-1.17461
12.50000,-2.08359,-1.18826
12.55000,-2.09199,-1.18563
12.60000,-2.10026,-1.19993
12.65000,-2.10839,-1.19646
12.70000,-2.11706,-1.20844
12.75000,-2.12533,-1.20653
12.80000,-2.13346,-1.22186
12.85000,-2.14186,-1.21487
12.90000,-2.15039,-1.23267
12.95000,-2.15839,-1.22587
13.00000,-2.16666,-1.24192
13.05000,-2.17533,-1.23576
13.10000,-2.18333,-1.25328
13.15000,-2.19159,-1.24692
13.20000,-2.20026,-1.26236
13.25000,-2.20853,-1.25864
13.30000,-2.21679,-1.27394
13.35000,-2.22533,-1.26910
13.40000,-2.23373,-1.28415
13.45000,-2.24186,-1.28131
13.50000,-2.25039,-1.29261
13.55000,-2.25853,-1.29312
13.60000,-2.26706,-1.30302
13.65000,-2.27546,-1.30531
13.70000,-2.28359,-1.31231
13.75000,-2.29199,-1.31529
13.80000,-2.30039,-1.32281
13.85000,-2.30853,-1.32901
13.90000,-2.31693,-1.32961
13.95000,-2.32533,-1.33931
14.00000,-2.33346,-1.34212
14.05000,-2.34173,-1.35050
14.10000,-2.35039,-1.35188
14.15000,-2.35853,-1.35973
14.20000,-2.36693,-1.36303
14.25000,-2.37546,-1.37178
14.30000,-2.38373,-1.37050
14.35000,-2.39186,-1.38361
14.40000,-2.40039,-1.37934
14.45000,-2.40879,-1.39350
14.50000,-2.41693,-1.39053
14.55000,-2.42519,-1.40119
14.60000,-2.43346,-1.40033
14.65000,-2.44186,-1.41095
14.70000,-2.45013,-1.41131
14.75000,-2.45839,-1.42056
14.80000,-2.46679,-1.42022
14.85000,-2.47533,-1.43229
14.90000,-2.48359,-1.42945
14.95000,-2.49186,-1.44255
15.00000,-2.50039,-1.43935
15.05000,-2.50866,-1.45210
15.10000,-2.51679,-1.45011
15.15000,-2.52533,-1.46072
15.20000,-2.53386,-1.46133
15.25000,-2.54186,-1.47015
15.30000,-2.55026,-1.47093
15.35000,-2.55879,-1.47986
15.40000,-2.56679,-1.48127
15.45000,-2.57506,-1.48960
15.50000,-2.58346,-1.49111
15.55000,-2.59173,-1.49828
15.60000,-2.59999,-1.50201
15.65000,-2.60839,-1.50763
15.70000,-2.61679,-1.51161
15.75000,-2.62519,-1.51751
15.80000,-2.63359,-1.52238
15.85000,-2.64186,-1.52807
15.90000,-2.65039,-1.53103
15.95000,-2.65866,-1.53778
16.00000,-2.66666,-1.54032
16.05000,-2.67519,-1.54767
16.10000,-2.68373,-1.54807
16.15000,-2.69173,-1.55909
16.20000,-2.70013,-1.55698
16.25000,-2.70866,-1.56883
16.30000,-2.71666,-1.56613
16.35000,-2.72493,-1.57752
16.40000,-2.73359,-1.57676
16.45000,-2.74186,-1.58734
16.50000,-2.75013,-1.58703
16.55000,-2.75853,-1.59722
16.60000,-2.76706,-1.59734
16.65000,-2.77533,-1.60555
16.70000,-2.78373,-1.60694
16.75000,-2.79199,-1.61575
16.80000,-2.80039,-1.61575
16.85000,-2.80866,-1.62499
16.90000,-2.81679,-1.62520
16.95000,-2.82519,-1.63443
17.00000,-2.83359,-1.63495
17.05000,-2.84173,-1.64302
17.10000,-2.85013,-1.64446
17.15000,-2.85866,-1.65252
17.20000,-2.86679,-1.65361
17.25000,-2.87519,-1.66126
17.30000,-2.88373,-1.66281
17.35000,-2.89186,-1.67020
17.40000,-2.90013,-1.67163
17.45000,-2.90866,-1.67882
17.50000,-2.91706,-1.68072
17.55000,-2.92519,-1.68867
17.60000,-2.93359,-1.68826
17.65000,-2.94199,-1.69722
17.70000,-2.95013,-1.69752
17.75000,-2.95839,-1.70515
17.80000,-2.96679,-1.70640
17.85000,-2.97533,-1.71332
17.90000,-2.98359,-1.71597
17.95000,-2.99173,-1.72144
18.00000,-3.00013,-1.72448
18.05000,-3.00866,-1.73008
18.10000,-3.01693,-1.73404
18.15000,-3.02533,-1.73837
18.20000,-3.03386,-1.74204
18.25000,-3.04213,-1.74662
18.30000,-3.05013,-1.74982
18.35000,-3.05853,-1.75487
18.40000,-3.06719,-1.75755
18.45000,-3.07519,-1.76277
18.50000,-3.08346,-1.76608
18.55000,-3.09199,-1.77058
18.60000,-3.10013,-1.77346
18.65000,-3.10839,-1.77878
18.70000,-3.11679,-1.78123
18.75000,-3.12506,-1.78523
18.80000,-3.13333,-1.78955
18.85000,-3.14173,-1.79351
18.90000,-3.15013,-1.79680
18.95000,-3.15866,-1.80059
19.00000,-3.16693,-1.80532
19.05000,-3.17506,-1.80709
19.10000,-3.18359,-1.81103
19.15000,-3.19199,-1.81563
19.20000,-3.20013,-1.81851
19.25000,-3.20866,-1.82303
19.30000,-3.21706,-1.82672
19.35000,-3.22506,-1.83090
19.40000,-3.23346,-1.83273
19.45000,-3.24199,-1.83810
19.50000,-3.24999,-1.84122
19.55000,-3.25826,-1.84468
19.60000,-3.26679,-1.84768
19.65000,-3.27519,-1.85351
19.70000,-3.28346,-1.85590
19.75000,-3.29199,-1.86106
19.80000,-3.30039,-1.86283
19.85000,-3.30866,-1.86984
19.90000,-3.31706,-1.87023
19.95000,-3.32519,-1.87695
20.00000,-3.33359,-1.87795
20.05000,-3.34186,-1.88389
20.10000,-3.35013,-1.88527
20.15000,-3.35866,-1.89011
20.20000,-3.36706,-1.89329
20.25000,-3.37519,-1.89732
20.30000,-3.38346,-1.89916
20.35000,-3.39199,-1.90464
20.40000,-3.39999,-1.90687
20.45000,-3.40839,-1.91058
20.50000,-3.41706,-1.91291
20.55000,-3.42533,-1.91567
20.60000,-3.43346,-1.91015
20.65000,-3.44199,-1.90957
20.70000,-3.45039,-1.91361
20.75000,-3.45852,-1.91869
20.80000,-3.46692,-1.92108
20.85000,-3.47546,-1.92677
20.90000,-3.48359,-1.92910
20.95000,-3.49186,-1.93436
21.00000,-3.50026,-1.93674
21.05000,-3.50866,-1.94169
21.10000,-3.51692,-1.94501
21.15000,-3.52519,-1.94923
21.20000,-3.53359,-1.95164
21.25000,-3.54199,-1.95656
21.30000,-3.55026,-1.96005
21.35000,-3.55852,-1.96374
21.40000,-3.56706,-1.96690
21.45000,-3.57546,-1.97159
21.50000,-3.58346,-1.97450
21.55000,-3.59199,-1.97776
21.60000,-3.60052,-1.98223
21.65000,-3.60852,-1.98494
21.70000,-3.61692,-1.98894
21.75000,-3.62546,-1.99240
21.80000,-3.63346,-1.99580
21.85000,-3.64172,-1.99959
21.90000,-3.65026,-2.00276
21.95000,-3.65839,-2.00579
22.00000,-3.66666,-2.00888
22.05000,-3.67506,-2.01316
22.10000,-3.68346,-2.01551
22.15000,-3.69186,-2.02005
22.20000,-3.70012,-2.02278
22.25000,-3.70839,-2.02763
22.30000,-3.71692,-2.02914
22.35000,-3.72532,-2.03572
22.40000,-3.73346,-2.03635
22.45000,-3.74186,-2.04215
22.50000,-3.75039,-2.04419
22.55000,-3.75839,-2.04971
22.60000,-3.76666,-2.05092
22.65000,-3.77532,-2.05646
22.70000,-3.78346,-2.05828
22.75000,-3.79172,-2.06327
22.80000,-3.80026,-2.06540
22.85000,-3.80866,-2.07036
22.90000,-3.81679,-2.07166
22.95000,-3.82519,-2.07772
23.00000,-3.83359,-2.07799
23.05000,-3.84199,-2.08440
23.10000,-3.85026,-2.08545
23.15000,-3.85866,-2.09020
23.20000,-3.86706,-2.09198
23.25000,-3.87532,-2.09675
23.30000,-3.88346,-2.09821
23.35000,-3.89199,-2.10187
23.40000,-3.90039,-2.10502
23.45000,-3.90839,-2.10887
23.50000,-3.91679,-2.11118
23.55000,-3.92519,-2.11461
23.60000,-3.93346,-2.11797
23.65000,-3.94172,-2.12092
23.70000,-3.95039,-2.12495
23.75000,-3.95866,-2.12777
23.80000,-3.96679,-2.13140
23.85000,-3.97532,-2.13329
23.90000,-3.98372,-2.13951
23.95000,-3.99186,-2.13902
24.00000,-4.00012,-2.14502
24.05000,-4.00852,-2.14574
24.10000,-4.01692,-2.15092
24.15000,-4.02519,-2.15087
24.20000,-4.03359,-2.15763
24.25000,-4.04199,-2.15643
24.30000,-4.05026,-2.16275
24.35000,-4.05839,-2.16357
24.40000,-4.06679,-2.16658
24.45000,-4.07532,-2.16976
24.50000,-4.08359,-2.17301
24.55000,-4.09172,-2.17410
24.60000,-4.10039,-2.17865
24.65000,-4.10879,-2.18071
24.70000,-4.11679,-2.18448
24.75000,-4.12519,-2.18450
24.80000,-4.13386,-2.19107
24.85000,-4.14186,-2.19154
24.90000,-4.15012,-2.19474
24.95000,-4.15879,-2.19610
25.00000,-4.16679,-2.20095
25.05000,-4.17506,-2.20203
25.10000,-4.18359,-2.20450
25.15000,-4.19172,-2.20652
25.20000,-4.19999,-2.21037
25.25000,-4.20852,-2.21100
25.30000,-4.21679,-2.21620
25.35000,-4.22532,-2.21652
25.40000,-4.23359,-2.22284
25.45000,-4.24172,-2.21927
25.50000,-4.25026,-2.22847
25.55000,-4.25852,-2.22661
25.60000,-4.26666,-2.23212
25.65000,-4.27519,-2.22928
25.70000,-4.28372,-2.23883
25.75000,-4.29172,-2.23843
25.80000,-4.29999,-2.23948
25.85000,-4.30866,-2.24359
25.90000,-4.31666,-2.24659
25.95000,-4.32492,-2.24850
26.00000,-4.33359,-2.24971
26.05000,-4.34199,-2.25413
26.10000,-4.35012,-2.25795
26.15000,-4.35866,-2.25759
26.20000,-4.36706,-2.26247
26.25000,-4.37532,-2.26312
26.30000,-4.38372,-2.26835
26.35000,-4.39186,-2.26755
26.40000,-4.40039,-2.27242
26.45000,-4.40866,-2.27103
26.50000,-4.41679,-2.27846
26.55000,-4.42519,-2.27458
26.60000,-4.43359,-2.27977
26.65000,-4.44172,-2.28051
26.70000,-4.45012,-2.28547
26.75000,-4.45866,-2.28386
26.80000,-4.46679,-2.28668
26.85000,-4.47506,-2.28928
26.90000,-4.48372,-2.29114
26.95000,-4.49199,-2.29371
27.00000,-4.50026,-2.29561
27.05000,-4.50879,-2.29638
27.10000,-4.51719,-2.29985
27.15000,-4.52532,-2.30068
27.20000,-4.53372,-2.30146
27.25000,-4.54212,-2.30352
27.30000,-4.55026,-2.30591
27.35000,-4.55866,-2.30791
27.40000,-4.56692,-2.30755
27.45000,-4.57532,-2.30979
27.50000,-4.58346,-2.31131
27.55000,-4.59172,-2.31273
27.60000,-4.60012,-2.31305
27.65000,-4.60866,-2.31355
27.70000,-4.61692,-2.31726
27.75000,-4.62519,-2.31378
27.80000,-4.63372,-2.31907
27.85000,-4.64212,-2.31809
27.90000,-4.64999,-2.32060
27.95000,-4.65852,-2.31968
28.00000,-4.66706,-2.32199
28.05000,-4.67519,-2.32410
28.10000,-4.68346,-2.32463
28.15000,-4.69199,-2.32495
28.20000,-4.70012,-2.32741
28.25000,-4.70839,-2.32621
28.30000,-4.71679,-2.32836
28.35000,-4.72506,-2.32873
28.40000,-4.73346,-2.32834
28.45000,-4.74172,-2.33145
28.50000,-4.74999,-2.33004
28.55000,-4.75852,-2.33303
28.60000,-4.76692,-2.33299
28.65000,-4.77506,-2.33335
28.70000,-4.78359,-2.33421
28.75000,-4.79212,-2.33230
28.80000,-4.80012,-2.33729
28.85000,-4.80852,-2.33431
28.90000,-4.81706,-2.33699
28.95000,-4.82506,-2.33768
29.00000,-4.83345,-2.33713
29.05000,-4.84199,-2.34078
29.10000,-4.84999,-2.34046
29.15000,-4.85825,-2.34106
29.20000,-4.86679,-2.34348
29.25000,-4.87519,-2.34364
29.30000,-4.88345,-2.34539
29.35000,-4.89185,-2.34635
29.40000,-4.90025,-2.34675
29.45000,-4.90852,-2.34755
29.50000,-4.91679,-2.34856
29.55000,-4.92519,-2.35038
29.60000,-4.93372,-2.34888
29.65000,-4.94212,-2.35164
29.70000,-4.95012,-2.35175
29.75000,-4.95865,-2.35166
29.80000,-4.96705,-2.35176
29.85000,-4.97505,-2.35329
29.90000,-4.98332,-2.35302
29.95000,-4.99185,-2.35424
30.00000,-5.00012,-2.35471
30.05000,-5.00839,-2.35458
30.10000,-5.01705,-2.35481
30.15000,-5.02532,-2.35548
30.20000,-5.03345,-2.35495
30.25000,-5.04199,-2.35737
30.30000,-5.05039,-2.35564
30.35000,-5.05852,-2.35865
30.40000,-5.06692,-2.35733
30.45000,-5.07545,-2.35983
30.50000,-5.08372,-2.35782
30.55000,-5.09199,-2.36141
30.60000,-5.10025,-2.35941
30.65000,-5.10865,-2.36189
30.70000,-5.11692,-2.36074
30.75000,-5.12519,-2.36241
30.80000,-5.13345,-2.36105
30.85000,-5.14199,-2.36299
30.90000,-5.15025,-2.36283
30.95000,-5.15852,-2.36334
31.00000,-5.16692,-2.36309
31.05000,-5.17532,-2.36444
31.10000,-5.18345,-2.36496
31.15000,-5.19185,-2.36253
31.20000,-5.20052,-2.36754
31.25000,-5.20865,-2.36419
31.30000,-5.21692,-2.36726
31.35000,-5.22532,-2.36508
31.40000,-5.23345,-2.36852
31.45000,-5.24172,-2.36583
31.50000,-5.24999,-2.36839
31.55000,-5.25839,-2.36819
31.60000,-5.26679,-2.37066
31.65000,-5.27519,-2.36851
31.70000,-5.28332,-2.37217
31.75000,-5.29199,-2.36937
31.80000,-5.30025,-2.37423
31.85000,-5.30839,-2.37079
31.90000,-5.31692,-2.37545
31.95000,-5.32532,-2.37026
32.00000,-5.33332,-2.37596
32.05000,-5.34185,-2.37195
32.10000,-5.35039,-2.37580
32.15000,-5.35839,-2.37414
32.20000,-5.36679,-2.37432
32.25000,-5.37545,-2.37438
32.30000,-5.38332,-2.37579
32.35000,-5.39159,-2.37479
32.40000,-5.40025,-2.37280
32.45000,-5.40852,-2.37744
32.50000,-5.41679,-2.37452
32.55000,-5.42519,-2.37782
32.60000,-5.43359,-2.37522
32.65000,-5.44199,-2.37890
32.70000,-5.45039,-2.37654
32.75000,-5.45852,-2.37971
32.80000,-5.46705,-2.37781
32.85000,-5.47545,-2.38127
32.90000,-5.48345,-2.37912
32.95000,-5.49199,-2.38152
33.00000,-5.50039,-2.37887
33.05000,-5.50839,-2.38471
33.10000,-5.51679,-2.37900
33.15000,-5.52532,-2.38491
33.20000,-5.53345,-2.38120
33.25000,-5.54172,-2.38368
33.30000,-5.55039,-2.38333
33.35000,-5.55865,-2.38430
33.40000,-5.56679,-2.38237
33.45000,-5.57532,-2.38520
33.50000,-5.58385,-2.38199
33.55000,-5.59199,-2.38715
33.60000,-5.60025,-2.37896
33.65000,-5.60865,-2.38771
33.70000,-5.61705,-2.38026
33.75000,-5.62519,-2.38590
33.80000,-5.63345,-2.37895
33.85000,-5.64199,-2.38472
33.90000,-5.65012,-2.38096
33.95000,-5.65839,-2.38497
34.00000,-5.66679,-2.37701
34.05000,-5.67532,-2.38529
34.10000,-5.68345,-2.37923
34.15000,-5.69172,-2.38444
34.20000,-5.70025,-2.37758
34.25000,-5.70865,-2.38607
34.30000,-5.71679,-2.37963
34.35000,-5.72519,-2.38617
34.40000,-5.73385,-2.37916
34.45000,-5.74185,-2.38814
34.50000,-5.75025,-2.38014
34.55000,-5.75865,-2.38694
34.60000,-5.76679,-2.38002
34.65000,-5.77519,-2.38633
34.70000,-5.78359,-2.37945
34.75000,-5.79185,-2.38461
34.80000,-5.80012,-2.38130
34.85000,-5.80852,-2.38276
34.90000,-5.81665,-2.38142
34.95000,-5.82519,-2.38255
35.00000,-5.83359,-2.38181
35.05000,-5.84185,-2.38209
35.10000,-5.85025,-2.38275
35.15000,-5.85865,-2.38218
35.20000,-5.86679,-2.38109
35.25000,-5.87519,-2.38341
35.30000,-5.88385,-2.38027
35.35000,-5.89172,-2.38247
35.40000,-5.90012,-2.37962
35.45000,-5.90865,-2.38202
35.50000,-5.91665,-2.38031
35.55000,-5.92492,-2.37957
35.60000,-5.93359,-2.38066
35.65000,-5.94185,-2.38017
35.70000,-5.95012,-2.37983
35.75000,-5.95852,-2.37921
35.80000,-5.96692,-2.37949
35.85000,-5.97519,-2.37804
35.90000,-5.98359,-2.37782
35.95000,-5.99185,-2.37748
36.00000,-6.00039,-2.37704
36.05000,-6.00879,-2.37573
36.10000,-6.01692,-2.37567
36.15000,-6.02532,-2.37130
36.20000,-6.03372,-2.37329
36.25000,-6.04185,-2.37047
36.30000,-6.05012,-2.36931
36.35000,-6.05865,-2.36883
36.40000,-6.06679,-2.36867
36.45000,-6.07519,-2.36643
36.50000,-6.08372,-2.36766
36.55000,-6.09199,-2.36682
36.60000,-6.10025,-2.36683
36.65000,-6.10879,-2.36563
36.70000,-6.11719,-2.36561
36.75000,-6.12532,-2.36640
36.80000,-6.13359,-2.36414
36.85000,-6.14185,-2.36468
36.90000,-6.15025,-2.36343
36.95000,-6.15852,-2.36552
37.00000,-6.16692,-2.36357
37.05000,-6.17532,-2.36577
37.10000,-6.18345,-2.36419
37.15000,-6.19172,-2.36690
37.20000,-6.19998,-2.36399
37.25000,-6.20865,-2.36784
37.30000,-6.21692,-2.36553
37.35000,-6.22519,-2.36756
37.40000,-6.23372,-2.36676
37.45000,-6.24198,-2.36822
37.50000,-6.25012,-2.36760
37.55000,-6.25865,-2.36721
37.60000,-6.26718,-2.36982
37.65000,-6.27518,-2.36792
37.70000,-6.28345,-2.36919
37.75000,-6.29198,-2.36879
37.80000,-6.30012,-2.37003
37.85000,-6.30838,-2.36925
37.90000,-6.31678,-2.36955
37.95000,-6.32518,-2.36986
38.00000,-6.33345,-2.37262
38.05000,-6.34185,-2.37043
38.10000,-6.35025,-2.37423
38.15000,-6.35865,-2.37281
38.20000,-6.36692,-2.37663
38.25000,-6.37505,-2.37468
38.30000,-6.38372,-2.37770
38.35000,-6.39198,-2.37752
38.40000,-6.40012,-2.37830
38.45000,-6.40852,-2.37627
38.50000,-6.41692,-2.37963
38.55000,-6.42505,-2.37835
38.60000,-6.43332,-2.38049
38.65000,-6.44198,-2.37983
38.70000,-6.44998,-2.38263
38.75000,-6.45825,-2.38119
38.80000,-6.46692,-2.38473
38.85000,-6.47505,-2.38434
38.90000,-6.48332,-2.38644
38.95000,-6.49185,-2.38691
39.00000,-6.50025,-2.39004
39.05000,-6.50865,-2.38901
39.10000,-6.51705,-2.39270
39.15000,-6.52532,-2.39252
39.20000,-6.53372,-2.39444
39.25000,-6.54198,-2.39534
39.30000,-6.55012,-2.39723
39.35000,-6.55865,-2.39893
39.40000,-6.56692,-2.39999
39.45000,-6.57505,-2.40237
39.50000,-6.58332,-2.40262
39.55000,-6.59198,-2.40573
39.60000,-6.60012,-2.40706
39.65000,-6.60838,-2.40641
39.70000,-6.61705,-2.41235
39.75000,-6.62532,-2.41109
39.80000,-6.63345,-2.41115
39.85000,-6.64198,-2.41610
39.90000,-6.65038,-2.41372
39.95000,-6.65852,-2.41763
40.00000,-6.66705,-2.41541
40.05000,-6.67545,-2.42034
40.10000,-6.68358,-2.41960
40.15000,-6.69198,-2.41900
40.20000,-6.70025,-2.42139
40.25000,-6.70865,-2.42153
40.30000,-6.71692,-2.42301
40.35000,-6.72518,-2.42484
40.40000,-6.73345,-2.42075
40.45000,-6.74198,-2.42928
40.50000,-6.75025,-2.42395
40.55000,-6.75838,-2.42789
40.60000,-6.76705,-2.42635
40.65000,-6.77545,-2.42991
40.70000,-6.78345,-2.42940
40.75000,-6.79198,-2.43112
40.80000,-6.80038,-2.43052
40.85000,-6.80852,-2.43434
40.90000,-6.81678,-2.43182
40.95000,-6.82532,-2.43637
41.00000,-6.83345,-2.43428
41.05000,-6.84172,-2.43828
41.10000,-6.85012,-2.43673
41.15000,-6.85838,-2.43993
41.20000,-6.86665,-2.44010
41.25000,-6.87505,-2.44200
41.30000,-6.88345,-2.44252
41.35000,-6.89185,-2.44595
41.40000,-6.90025,-2.44433
41.45000,-6.90838,-2.44890
41.50000,-6.91705,-2.44643
41.55000,-6.92532,-2.45082
41.60000,-6.93345,-2.44881
41.65000,-6.94198,-2.45200
41.70000,-6.95052,-2.45013
41.75000,-6.95825,-2.45289
41.80000,-6.96665,-2.45214
41.85000,-6.97532,-2.45432
41.90000,-6.98332,-2.45355
41.95000,-6.99158,-2.45653
42.00000,-7.00025,-2.45411
42.05000,-7.00852,-2.45892
42.10000,-7.01665,-2.45655
42.15000,-7.02518,-2.45969
42.20000,-7.03358,-2.45810
42.25000,-7.04185,-2.45941
42.30000,-7.05025,-2.45829
42.35000,-7.05852,-2.46001
42.40000,-7.06705,-2.46261
42.45000,-7.07532,-2.46395
42.50000,-7.08345,-2.46632
42.55000,-7.09198,-2.46687
42.60000,-7.10038,-2.46955
42.65000,-7.10852,-2.46998
42.70000,-7.11678,-2.47038
42.75000,-7.12532,-2.47333
42.80000,-7.13345,-2.47240
42.85000,-7.14172,-2.47684
42.90000,-7.15038,-2.47484
42.95000,-7.15865,-2.48019
43.00000,-7.16678,-2.47816
43.05000,-7.17532,-2.48268
43.10000,-7.18372,-2.48306
43.15000,-7.19185,-2.48541
43.20000,-7.20025,-2.48527
43.25000,-7.20878,-2.48932
43.30000,-7.21692,-2.48547
43.35000,-7.22518,-2.49311
43.40000,-7.23358,-2.48660
43.45000,-7.24198,-2.49169
43.50000,-7.25025,-2.48909
43.55000,-7.25838,-2.49352
43.60000,-7.26678,-2.49060
43.65000,-7.27545,-2.49497
43.70000,-7.28358,-2.49457
43.75000,-7.29185,-2.49757
43.80000,-7.30038,-2.49670
43.85000,-7.30865,-2.49862
43.90000,-7.31678,-2.49955
43.95000,-7.32518,-2.50072
44.00000,-7.33385,-2.50232
44.05000,-7.34185,-2.50237
44.10000,-7.35025,-2.50358
44.15000,-7.35878,-2.50327
44.20000,-7.36678,-2.50480
44.25000,-7.37505,-2.50358
44.30000,-7.38345,-2.50601
44.35000,-7.39172,-2.50457
44.40000,-7.40012,-2.50604
44.45000,-7.40852,-2.50646
44.50000,-7.41678,-2.50664
44.55000,-7.42532,-2.50748
44.60000,-7.43358,-2.50864
44.65000,-7.44185,-2.50787
44.70000,-7.45025,-2.50815
44.75000,-7.45865,-2.51073
44.80000,-7.46678,-2.50982
44.85000,-7.47532,-2.51044
44.90000,-7.48372,-2.51181
44.95000,-7.49172,-2.51268
45.00000,-7.49998,-2.51163
45.05000,-7.50865,-2.51412
45.10000,-7.51678,-2.51388
45.15000,-7.52505,-2.51290
45.20000,-7.53358,-2.51604
45.25000,-7.54171,-2.51469
45.30000,-7.54998,-2.51678
45.35000,-7.55851,-2.51336
45.40000,-7.56691,-2.51845
45.45000,-7.57518,-2.51177
45.50000,-7.58358,-2.51875
45.55000,-7.59185,-2.51201
45.60000,-7.60038,-2.51521
45.65000,-7.60865,-2.51327
45.70000,-7.61691,-2.51512
45.75000,-7.62531,-2.51102
45.80000,-7.63371,-2.51437
45.85000,-7.64171,-2.51133
45.90000,-7.65011,-2.50904
45.95000,-7.65865,-2.51310
46.00000,-7.66678,-2.50939
46.05000,-7.67505,-2.51276
46.10000,-7.68371,-2.50727
46.15000,-7.69185,-2.51524
46.20000,-7.70011,-2.50850
46.25000,-7.70865,-2.51407
46.30000,-7.71705,-2.51100
46.35000,-7.72518,-2.51553
46.40000,-7.73358,-2.51191
46.45000,-7.74211,-2.51666
46.50000,-7.75025,-2.51277
46.55000,-7.75851,-2.51572
46.60000,-7.76691,-2.51350
46.65000,-7.77531,-2.51711
46.70000,-7.78358,-2.51433
46.75000,-7.79185,-2.51987
46.80000,-7.80011,-2.51374
46.85000,-7.80865,-2.52239
46.90000,-7.81691,-2.51710
46.95000,-7.82518,-2.52262
47.00000,-7.83371,-2.52003
47.05000,-7.84211,-2.52536
47.10000,-7.85025,-2.52211
47.15000,-7.85865,-2.52548
47.20000,-7.86718,-2.52459
47.25000,-7.87518,-2.52682
47.30000,-7.88358,-2.52505
47.35000,-7.89198,-2.52824
47.40000,-7.90011,-2.52582
47.45000,-7.90838,-2.52803
47.50000,-7.91691,-2.52755
47.55000,-7.92505,-2.52958
47.60000,-7.93331,-2.52827
47.65000,-7.94171,-2.52873
47.70000,-7.95011,-2.52941
47.75000,-7.95851,-2.52887
47.80000,-7.96678,-2.52871
47.85000,-7.97505,-2.52743
47.90000,-7.98358,-2.52721
47.95000,-7.99198,-2.52649
48.00000,-8.00011,-2.52733
48.05000,-8.00865,-2.52494
48.10000,-8.01705,-2.52761
48.15000,-8.02505,-2.52380
48.20000,-8.03331,-2.52570
48.25000,-8.04198,-2.52291
48.30000,-8.04998,-2.52513
48.35000,-8.05825,-2.52185
48.40000,-8.06678,-2.52344
48.45000,-8.07518,-2.52335
48.50000,-8.08345,-2.52336
48.55000,-8.09211,-2.52180
48.60000,-8.10038,-2.52396
48.65000,-8.10851,-2.52141
48.70000,-8.11691,-2.52227
48.75000,-8.12518,-2.51964
48.80000,-8.13358,-2.52102
48.85000,-8.14198,-2.51833
48.90000,-8.15011,-2.52168
48.95000,-8.15865,-2.51858
49.00000,-8.16691,-2.51978
49.05000,-8.17505,-2.51913
49.10000,-8.18345,-2.52006
49.15000,-8.19198,-2.52030
49.20000,-8.20011,-2.52029
49.25000,-8.20838,-2.51989
49.30000,-8.21705,-2.52263
49.35000,-8.22531,-2.51978
49.40000,-8.23345,-2.52343
49.45000,-8.24198,-2.52099
49.50000,-8.25038,-2.52402
49.55000,-8.25865,-2.52220
49.60000,-8.26705,-2.52456
49.65000,-8.27545,-2.52313
49.70000,-8.28358,-2.52290
49.75000,-8.29198,-2.52412
49.80000,-8.30025,-2.52297
49.85000,-8.30865,-2.52291
49.90000,-8.31691,-2.52486
49.95000,-8.32518,-2.52371
50.00000,-8.33358,-2.52602
50.05000,-8.34198,-2.52613
50.10000,-8.35025,-2.52680
50.15000,-8.35851,-2.53023
50.20000,-8.36705,-2.52636
50.25000,-8.37545,-2.53187
50.30000,-8.38345,-2.52953
50.35000,-8.39198,-2.53109
50.40000,-8.40038,-2.53216
50.45000,-8.40838,-2.53200
50.50000,-8.41678,-2.53404
50.55000,-8.42545,-2.53258
50.60000,-8.43345,-2.53484
50.65000,-8.44171,-2.53598
50.70000,-8.45025,-2.53570
50.75000,-8.45838,-2.53673
50.80000,-8.46665,-2.53881
50.85000,-8.47518,-2.53704
50.90000,-8.48345,-2.54122
50.95000,-8.49198,-2.53854
51.00000,-8.50025,-2.54304
51.05000,-8.50851,-2.54053
51.10000,-8.51705,-2.54287
51.15000,-8.52531,-2.54342
51.20000,-8.53345,-2.54505
51.25000,-8.54198,-2.54271
51.30000,-8.55038,-2.54664
51.35000,-8.55838,-2.54522
51.40000,-8.56665,-2.54466
51.45000,-8.57531,-2.54627
51.50000,-8.58331,-2.54531
51.55000,-8.59158,-2.54366
51.60000,-8.60025,-2.54454
51.65000,-8.60851,-2.54261
51.70000,-8.61678,-2.54482
51.75000,-8.62531,-2.54270
51.80000,-8.63358,-2.54646
51.85000,-8.64185,-2.54102
51.90000,-8.65025,-2.54866
51.95000,-8.65851,-2.54246
52.00000,-8.66705,-2.54893
52.05000,-8.67545,-2.54421
52.10000,-8.68358,-2.54908
52.15000,-8.69198,-2.54637
52.20000,-8.70038,-2.54456
52.25000,-8.70838,-2.54938
52.30000,-8.71678,-2.54597
52.35000,-8.72518,-2.54930
52.40000,-8.73331,-2.54522
52.45000,-8.74158,-2.55103
52.50000,-8.75038,-2.54483
52.55000,-8.75865,-2.55363
52.60000,-8.76678,-2.54539
52.65000,-8.77531,-2.55280
52.70000,-8.78371,-2.54767
52.75000,-8.79185,-2.55299
52.80000,-8.80038,-2.54694
52.85000,-8.80878,-2.55429
52.90000,-8.81691,-2.54574
52.95000,-8.82518,-2.55275
53.00000,-8.83358,-2.54944
53.05000,-8.84198,-2.54738
53.10000,-8.85024,-2.54652
53.15000,-8.85851,-2.54520
53.20000,-8.86678,-2.54538
53.25000,-8.87531,-2.54074
53.30000,-8.88358,-2.54577
53.35000,-8.89185,-2.54189
53.40000,-8.90038,-2.54328
53.45000,-8.90878,-2.54363
53.50000,-8.91678,-2.54358
53.55000,-8.92531,-2.54224
53.60000,-8.93384,-2.54405
53.65000,-8.94185,-2.54533
53.70000,-8.95011,-2.54239
53.75000,-8.95865,-2.54412
53.80000,-8.96678,-2.54680
53.85000,-8.97504,-2.54538
53.90000,-8.98345,-2.54642
53.95000,-8.99171,-2.54826
54.00000,-9.00011,-2.55083
54.05000,-9.00838,-2.54790
54.10000,-9.01678,-2.55345
54.15000,-9.02518,-2.55115
54.20000,-9.03358,-2.55661
54.25000,-9.04171,-2.55169
54.30000,-9.05024,-2.55786
54.35000,-9.05864,-2.55733
54.40000,-9.06665,-2.55946
54.45000,-9.07518,-2.55708
54.50000,-9.08371,-2.56493
54.55000,-9.09171,-2.55912
54.60000,-9.09998,-2.56607
54.65000,-9.10864,-2.56146
54.70000,-9.11678,-2.56911
54.75000,-9.12491,-2.56289
54.80000,-9.13344,-2.56974
54.85000,-9.14184,-2.56598
54.90000,-9.14998,-2.57081
54.95000,-9.15851,-2.56951
55.00000,-9.16691,-2.57148
55.05000,-9.17531,-2.57225
55.10000,-9.18371,-2.57519
55.15000,-9.19198,-2.57111
55.20000,-9.20038,-2.57719
55.25000,-9.20878,-2.57522
55.30000,-9.21678,-2.57726
55.35000,-9.22531,-2.57777
55.40000,-9.23358,-2.57956
55.45000,-9.24171,-2.58022
55.50000,-9.25011,-2.58187
55.55000,-9.25864,-2.58405
55.60000,-9.26678,-2.58323
55.65000,-9.27504,-2.58765
55.70000,-9.28371,-2.58916
55.75000,-9.29198,-2.58768
55.80000,-9.30011,-2.59194
55.85000,-9.30864,-2.59375
55.90000,-9.31704,-2.59359
55.95000,-9.32531,-2.59565
56.00000,-9.33371,-2.59765
56.05000,-9.34211,-2.59928
56.10000,-9.35024,-2.59896
56.15000,-9.35851,-2.59958
56.20000,-9.36678,-2.60290
56.25000,-9.37531,-2.60014
56.30000,-9.38358,-2.60806
56.35000,-9.39171,-2.60056
56.40000,-9.40011,-2.61022
56.45000,-9.40864,-2.60665
56.50000,-9.41691,-2.61082
56.55000,-9.42518,-2.60960
56.60000,-9.43371,-2.61531
56.65000,-9.44211,-2.61294
56.70000,-9.45011,-2.61731
56.75000,-9.45864,-2.61714
56.80000,-9.46718,-2.62356
56.85000,-9.47518,-2.62001
56.90000,-9.48344,-2.62648
56.95000,-9.49198,-2.62804
57.00000,-9.50011,-2.62661
57.05000,-9.50838,-2.63271
57.10000,-9.51691,-2.63366
57.15000,-9.52504,-2.63572
57.20000,-9.53344,-2.63796
57.25000,-9.54184,-2.64084
57.30000,-9.55011,-2.64260
57.35000,-9.55864,-2.64575
57.40000,-9.56691,-2.64699
57.45000,-9.57504,-2.65090
57.50000,-9.58358,-2.64996
57.55000,-9.59198,-2.65642
57.60000,-9.60011,-2.65704
57.65000,-9.60851,-2.65762
57.70000,-9.61704,-2.66214
57.75000,-9.62504,-2.66480
57.80000,-9.63344,-2.66488
57.85000,-9.64198,-2.66818
57.90000,-9.64998,-2.67098
57.95000,-9.65824,-2.67367
58.00000,-9.66678,-2.67302
58.05000,-9.67518,-2.67878
58.10000,-9.68344,-2.67896
58.15000,-9.69184,-2.68034
58.20000,-9.70024,-2.67897
58.25000,-9.70864,-2.67948
58.30000,-9.71691,-2.68163
58.35000,-9.72518,-2.68542
58.40000,-9.73371,-2.68461
58.45000,-9.74198,-2.68984
58.50000,-9.75011,-2.69090
58.55000,-9.75864,-2.69300
58.60000,-9.76704,-2.69422
58.65000,-9.77491,-2.69400
58.70000,-9.78331,-2.69732
58.75000,-9.79184,-2.70009
58.80000,-9.80011,-2.70418
58.85000,-9.80838,-2.70737
58.90000,-9.81718,-2.71070
58.95000,-9.82544,-2.71481
59.00000,-9.83358,-2.71652
59.05000,-9.84211,-2.71976
59.10000,-9.85051,-2.72296
59.15000,-9.85851,-2.72361
59.20000,-9.86691,-2.72719
59.25000,-9.87531,-2.72852
59.30000,-9.88358,-2.73129
59.35000,-9.89184,-2.73251
59.40000,-9.90011,-2.73480
59.45000,-9.90864,-2.73723
59.50000,-9.91691,-2.73760
59.55000,-9.92504,-2.74088
59.60000,-9.93344,-2.74054
59.65000,-9.94198,-2.74409
59.70000,-9.95024,-2.74604
59.75000,-9.95851,-2.74725
59.80000,-9.96691,-2.74970
59.85000,-9.97531,-2.75275
59.90000,-9.98344,-2.75415
59.95000,-9.99198,-2.75641
60.00000,-10.00064,-2.75881
60.05000,-10.00864,-2.75953
60.10000,-10.01691,-2.76012
60.15000,-10.02544,-2.76264
60.20000,-10.03344,-2.76301
60.25000,-10.04171,-2.76552
60.30000,-10.05011,-2.76560
60.35000,-10.05851,-2.76931
60.40000,-10.06664,-2.76978
60.45000,-10.07504,-2.77273
60.50000,-10.08344,-2.77337
60.55000,-10.09184,-2.77566
60.60000,-10.10011,-2.77793
60.65000,-10.10824,-2.77871
60.70000,-10.11691,-2.78062
60.75000,-10.12531,-2.78393
60.80000,-10.13344,-2.78374
60.85000,-10.14198,-2.78679
60.90000,-10.15038,-2.78783
60.95000,-10.15837,-2.79089
61.00000,-10.16664,-2.78914
61.05000,-10.17531,-2.79369
61.10000,-10.18344,-2.79393
61.15000,-10.19158,-2.79605
61.20000,-10.20024,-2.79484
61.25000,-10.20851,-2.76117
61.30000,-10.21678,-2.74279
61.35000,-10.22531,-2.75665
61.40000,-10.23358,-2.75827
61.45000,-10.24198,-2.76733
61.50000,-10.25024,-2.76679
61.55000,-10.25864,-2.77376
61.60000,-10.26717,-2.77311
61.65000,-10.27544,-2.77874
61.70000,-10.28344,-2.77732
61.75000,-10.29197,-2.77987
61.80000,-10.30037,-2.78099
61.85000,-10.30837,-2.78292
61.90000,-10.31678,-2.78268
61.95000,-10.32531,-2.78627
62.00000,-10.33344,-2.78588
62.05000,-10.34171,-2.78863
62.10000,-10.35024,-2.78858
62.15000,-10.35878,-2.79248
62.20000,-10.36691,-2.79149
62.25000,-10.37531,-2.79383
62.30000,-10.38371,-2.79496
62.35000,-10.39197,-2.79592
62.40000,-10.40037,-2.79787
62.45000,-10.40864,-2.79955
62.50000,-10.41704,-2.79940
62.55000,-10.42531,-2.80199
62.60000,-10.43357,-2.80202
62.65000,-10.44184,-2.80400
62.70000,-10.45024,-2.80429
62.75000,-10.45837,-2.80702
62.80000,-10.46677,-2.80555
62.85000,-10.47531,-2.80865
62.90000,-10.48344,-2.80950
62.95000,-10.49171,-2.81039
63.00000,-10.50037,-2.81166
63.05000,-10.50877,-2.81452
63.10000,-10.51691,-2.81331
63.15000,-10.52531,-2.81579
63.20000,-10.53384,-2.81534
63.25000,-10.54184,-2.81673
63.30000,-10.55011,-2.81577
63.35000,-10.55864,-2.81825
63.40000,-10.56677,-2.81806
63.45000,-10.57504,-2.81995
63.50000,-10.58344,-2.81992
63.55000,-10.59171,-2.82251
63.60000,-10.59997,-2.82188
63.65000,-10.60837,-2.82528
63.70000,-10.61664,-2.82432
63.75000,-10.62517,-2.82790
63.80000,-10.63344,-2.82812
63.85000,-10.64157,-2.82966
63.90000,-10.65037,-2.83150
63.95000,-10.65877,-2.83367
64.00000,-10.66677,-2.83455
64.05000,-10.67531,-2.83499
64.10001,-10.68384,-2.83664
64.15000,-10.69184,-2.83813
64.20000,-10.70011,-2.83696
64.25000,-10.70864,-2.84074
64.30000,-10.71677,-2.84008
64.35001,-10.72491,-2.84171
64.40000,-10.73344,-2.84370
64.45000,-10.74184,-2.84533
64.50000,-10.74997,-2.84735
64.55000,-10.75837,-2.84863
64.60001,-10.76691,-2.85175
64.65000,-10.77517,-2.85309
64.70000,-10.78357,-2.85421
64.75000,-10.79184,-2.85637
64.80000,-10.80037,-2.85842
64.85001,-10.80864,-2.85959
64.90000,-10.81664,-2.86269
64.95000,-10.82517,-2.86137
65.00000,-10.83371,-2.86800
65.05000,-10.84171,-2.86543
65.10001,-10.85011,-2.86997
65.15000,-10.85864,-2.86907
65.20000,-10.86677,-2.87319
65.25000,-10.87504,-2.87170
65.30000,-10.88371,-2.87602
65.35001,-10.89197,-2.87573
65.40000,-10.90011,-2.87875
65.45000,-10.90864,-2.87750
65.50000,-10.91704,-2.88277
65.55000,-10.92531,-2.88136
65.60001,-10.93371,-2.88458
65.65000,-10.94211,-2.88462
65.70001,-10.95037,-2.88717
65.75000,-10.95851,-2.88722
65.80000,-10.96691,-2.88847
65.85001,-10.97531,-2.88895
65.90000,-10.98357,-2.89153
65.95001,-10.99171,-2.89221
66.00000,-10.99997,-2.89398
66.05000,-11.00864,-2.89411
66.10001,-11.01677,-2.89754
66.15000,-11.02504,-2.89734
66.20001,-11.03371,-2.90096
66.25000,-11.04197,-2.90016
66.30000,-11.05011,-2.90412
66.35001,-11.05864,-2.90301
66.40000,-11.06717,-2.90682
66.45001,-11.07531,-2.90641
66.50000,-11.08357,-2.90960
66.55000,-11.09211,-2.90920
66.60001,-11.10011,-2.91239
66.65000,-11.10837,-2.91303
66.70001,-11.11664,-2.91164
66.75000,-11.12504,-2.92127
66.80000,-11.13331,-2.91225
66.85001,-11.14171,-2.92381
66.90000,-11.14997,-2.91941
66.95001,-11.15851,-2.92662
67.00000,-11.16691,-2.92374
67.05000,-11.17504,-2.93088
67.10001,-11.18371,-2.92817
67.15000,-11.19211,-2.93559
67.20001,-11.20011,-2.93071
67.25000,-11.20851,-2.93862
67.30000,-11.21704,-2.93358
67.35001,-11.22491,-2.94438
67.40000,-11.23331,-2.93523
67.45001,-11.24197,-2.94659
67.50000,-11.25011,-2.94507
67.55000,-11.25824,-2.94770
67.60001,-11.26677,-2.94756
67.65000,-11.27517,-2.95448
67.70001,-11.28331,-2.95182
67.75000,-11.29184,-2.95586
67.80000,-11.30024,-2.95653
67.85001,-11.30864,-2.96224
67.90000,-11.31704,-2.96117
67.95001,-11.32517,-2.96510
68.00000,-11.33371,-2.96688
68.05000,-11.34197,-2.96640
68.10001,-11.35011,-2.97328
68.15000,-11.35851,-2.96892
68.20001,-11.36691,-2.97302
68.25000,-11.37504,-2.97770
68.30000,-11.38331,-2.97493
68.35001,-11.39197,-2.97823
68.40000,-11.40011,-2.98101
68.45001,-11.40837,-2.98092
68.50000,-11.41691,-2.98329
68.55000,-11.42531,-2.98332
68.60001,-11.43344,-2.98747
68.65000,-11.44197,-2.98454
68.70001,-11.45037,-2.98832
68.75000,-11.45864,-2.99094
68.80000,-11.46704,-2.98986
68.85001,-11.47544,-2.99329
68.90000,-11.48371,-2.99379
68.95001,-11.49184,-2.99496
69.00000,-11.50011,-2.99582
69.05000,-11.50864,-2.99638
69.10001,-11.51691,-2.99778
69.15000,-11.52517,-2.99837
69.20001,-11.53344,-2.99808
69.25000,-11.54211,-3.00032
69.30000,-11.55037,-3.00197
69.35001,-11.55850,-3.00195
69.40000,-11.56704,-3.00204
69.45001,-11.57544,-3.00584
69.50000,-11.58357,-3.00183
69.55000,-11.59197,-2.97739
69.60001,-11.60050,-2.98086
69.65000,-11.60850,-2.98634
69.70001,-11.61677,-2.98673
69.75000,-11.62530,-2.99277
69.80000,-11.63357,-2.99371
69.85001,-11.64171,-2.99758
69.90000,-11.65011,-2.99991
69.95001,-11.65837,-3.00006
70.00000,-11.66664,-3.00664
70.05000,-11.67504,-3.00638
70.10001,-11.68344,-3.01045
70.15000,-11.69210,-3.01200
70.20001,-11.70037,-3.01679
70.25000,-11.70850,-3.01592
70.30000,-11.71704,-3.01952
70.35001,-11.72544,-3.02183
70.40000,-11.73357,-3.02388
70.45001,-11.74197,-3.02478
70.50000,-11.75037,-3.02834
70.55000,-11.75850,-3.02846
70.60001,-11.76677,-3.03041
70.65000,-11.77530,-3.03211
70.70001,-11.78330,-3.03376
70.75000,-11.79157,-3.03325
70.80000,-11.80010,-3.03670
70.85001,-11.80850,-3.03913
70.90000,-11.81690,-3.03942
70.95001,-11.82530,-3.04381
71.00000,-11.83370,-3.04503
71.05000,-11.84197,-3.04687
71.10001,-11.85037,-3.04641
71.15000,-11.85864,-3.05208
71.20001,-11.86690,-3.05024
71.25000,-11.87517,-3.05470
71.30000,-11.88330,-3.05460
71.35001,-11.89184,-3.05883
71.40000,-11.90024,-3.06006
71.45001,-11.90837,-3.06370
71.50000,-11.91677,-3.06215
71.55000,-11.92530,-3.06818
71.60001,-11.93344,-3.06691
71.65000,-11.94170,-3.07044
71.70001,-11.95024,-3.06957
71.75000,-11.95850,-3.07687
71.80000,-11.96677,-3.07260
71.85001,-11.97530,-3.07987
71.90000,-11.98384,-3.07818
71.95001,-11.99197,-3.08520
72.00000,-12.00050,-3.08122
72.05000,-12.00877,-3.08997
72.10001,-12.01704,-3.08365
72.15000,-12.02530,-3.09445
72.20001,-12.03370,-3.08747
72.25000,-12.04197,-3.09586
72.30000,-12.05024,-3.09350
72.35001,-12.05850,-3.10055
72.40000,-12.06690,-3.09653
72.45001,-12.07530,-3.10402
72.50000,-12.08357,-3.10274
72.55000,-12.09170,-3.10837
72.60001,-12.10037,-3.10656
72.65000,-12.10864,-3.11410
72.70001,-12.11677,-3.11371
72.75000,-12.12530,-3.11670
72.80000,-12.13384,-3.12000
72.85001,-12.14184,-3.12142
72.90000,-12.15024,-3.12218
72.95001,-12.15864,-3.12399
73.00000,-12.16677,-3.12766
73.05000,-12.17490,-3.12609
73.10001,-12.18330,-3.13015
73.15000,-12.19170,-3.13150
73.20001,-12.20010,-3.13477
73.25000,-12.20850,-3.13694
73.30000,-12.21677,-3.13885
73.35001,-12.22530,-3.14122
73.40000,-12.23357,-3.14480
73.45001,-12.24170,-3.14489
73.50000,-12.25037,-3.14723
73.55000,-12.25864,-3.14931
73.60001,-12.26677,-3.15094
73.65000,-12.27517,-3.15187
73.70001,-12.28370,-3.15434
73.75000,-12.29170,-3.15445
73.80000,-12.30010,-3.15652
73.85001,-12.30864,-3.15653
73.90000,-12.31664,-3.16120
73.95001,-12.32504,-3.15944
74.00000,-12.33357,-3.16349
74.05000,-12.34184,-3.16340
74.10001,-12.35010,-3.16794
74.15000,-12.35850,-3.16718
74.20001,-12.36704,-3.17123
74.25000,-12.37530,-3.17172
74.30000,-12.38357,-3.17260
74.35001,-12.39184,-3.17554
74.40000,-12.40037,-3.17541
74.45001,-12.40877,-3.17836
74.50000,-12.41677,-3.17883
74.55000,-12.42530,-3.17907
74.60001,-12.43370,-3.18211
74.65000,-12.44170,-3.18222
74.70001,-12.44997,-3.18318
74.75000,-12.45864,-3.18460
74.80000,-12.46677,-3.18559
74.85001,-12.47504,-3.18705
74.90000,-12.48370,-3.18658
74.95001,-12.49210,-3.19239
75.00000,-12.50024,-3.18907
75.05000,-12.50877,-3.19311
75.10001,-12.51717,-3.19301
75.15000,-12.52530,-3.19468
75.20001,-12.53357,-3.19443
75.25000,-12.54197,-3.19783
75.30000,-12.55024,-3.19615
75.35001,-12.55850,-3.19980
75.40000,-12.56677,-3.19818
75.45001,-12.57530,-3.20322
75.50000,-12.58357,-3.20199
75.55000,-12.59170,-3.20567
75.60001,-12.59997,-3.20369
75.65000,-12.60850,-3.20784
75.70001,-12.61664,-3.20706
75.75000,-12.62490,-3.21002
75.80000,-12.63357,-3.20990
75.85001,-12.64210,-3.21397
75.90000,-12.65010,-3.21314
75.95001,-12.65864,-3.21583
76.00000,-12.66717,-3.21616
76.05000,-12.67517,-3.21794
76.10001,-12.68344,-3.21699
76.15000,-12.69197,-3.21949
76.20001,-12.70010,-3.21975
76.25000,-12.70837,-3.22027
76.30000,-12.71677,-3.22161
76.35001,-12.72504,-3.22078
76.40000,-12.73344,-3.22259
76.45001,-12.74184,-3.22391
76.50000,-12.75010,-3.22314
76.55000,-12.75850,-3.22509
76.60001,-12.76677,-3.22561
76.65000,-12.77504,-3.22664
76.70001,-12.78357,-3.22701
76.75000,-12.79197,-3.22907
76.80000,-12.80010,-3.23092
76.85001,-12.80864,-3.23003
76.90000,-12.81704,-3.23328
76.95001,-12.82504,-3.23279
77.00000,-12.83344,-3.23431
77.05000,-12.84197,-3.23484
77.10001,-12.84997,-3.23611
77.15000,-12.85824,-3.23591
77.20001,-12.86690,-3.23672
77.25000,-12.87517,-3.23780
77.30000,-12.88344,-3.23931
77.35001,-12.89197,-3.23913
77.40000,-12.90024,-3.24116
77.45001,-12.90863,-3.24098
77.50000,-12.91704,-3.24259
77.55000,-12.92517,-3.24144
77.60001,-12.93357,-3.24213
77.65000,-12.94197,-3.24181
77.70001,-12.95010,-3.24336
77.75000,-12.95863,-3.23840
77.80000,-12.96704,-3.24322
77.85001,-12.97517,-3.23780
77.90000,-12.98343,-3.23919
77.95001,-12.99184,-3.23597
78.00000,-12.99997,-3.23567
78.05000,-13.00837,-3.23266
78.10001,-13.01704,-3.23418
78.15000,-13.02530,-3.23042
78.20001,-13.03357,-3.23345
78.25000,-13.04197,-3.22771
78.30000,-13.05050,-3.23317
78.35001,-13.05863,-3.22553
78.40000,-13.06704,-3.23022
78.45001,-13.07543,-3.22414
78.50000,-13.08370,-3.22675
78.55000,-13.09197,-3.22175
78.60001,-13.10023,-3.22424
78.65000,-13.10863,-3.21754
78.70001,-13.11690,-3.22014
78.75000,-13.12517,-3.21595
78.80000,-13.13343,-3.21668
78.85001,-13.14197,-3.21307
78.90000,-13.15023,-3.21684
78.95001,-13.15850,-3.20915
79.00000,-13.16703,-3.21408
79.05000,-13.17543,-3.20710
79.10001,-13.18357,-3.20923
79.15000,-13.19197,-3.20429
79.20001,-13.20037,-3.20532
79.25000,-13.20850,-3.20247
79.30000,-13.21677,-3.20248
79.35001,-13.22530,-3.19980
79.40000,-13.23330,-3.19994
79.45001,-13.24157,-3.19917
79.50000,-13.25010,-3.19791
79.55000,-13.25837,-3.19860
79.60001,-13.26663,-3.19724
79.65000,-13.27490,-3.19690
79.70001,-13.28330,-3.19638
79.75000,-13.29183,-3.19797
79.80000,-13.30010,-3.19822
79.85001,-13.30837,-3.19839
79.90000,-13.31703,-3.19867
79.95001,-13.32543,-3.20070
80.00000,-13.33343,-3.20082
80.05000,-13.34183,-3.20105
80.10001,-13.35037,-3.20309
80.15000,-13.35837,-3.20406
80.20001,-13.36677,-3.20531
80.25000,-13.37530,-3.20727
80.30000,-13.38330,-3.20706
80.35001,-13.39157,-3.21058
80.40000,-13.40023,-3.21169
80.45001,-13.40850,-3.21409
80.50001,-13.41677,-3.21489
80.55000,-13.42530,-3.21687
80.60001,-13.43357,-3.21928
80.65000,-13.44197,-3.21938
80.70001,-13.45037,-3.22272
80.75001,-13.45863,-3.22256
80.80000,-13.46703,-3.22565
80.85001,-13.47530,-3.22439
80.90000,-13.48343,-3.22644
80.95001,-13.49197,-3.22520
81.00001,-13.50023,-3.22612
81.05000,-13.50837,-3.22520
81.10001,-13.51677,-3.22590
81.15000,-13.52530,-3.22587
81.20001,-13.53343,-3.22801
81.25001,-13.54170,-3.22628
81.30000,-13.55037,-3.22898
81.35001,-13.55863,-3.22840
81.40000,-13.56690,-3.22957
81.45001,-13.57530,-3.22940
81.50001,-13.58370,-3.23208
81.55000,-13.59183,-3.23002
81.60001,-13.60023,-3.23242
81.65000,-13.60863,-3.23103
81.70001,-13.61690,-3.23238
81.75001,-13.62517,-3.23322
81.80000,-13.63357,-3.23303
81.85001,-13.64197,-3.23436
81.90000,-13.65023,-3.23402
81.95001,-13.65850,-3.23747
82.00001,-13.66690,-3.23474
82.05000,-13.67530,-3.23913
82.10001,-13.68357,-3.23902
82.15000,-13.69183,-3.24033
82.20001,-13.70037,-3.24166
82.25001,-13.70877,-3.24393
82.30000,-13.71677,-3.24511
82.35001,-13.72517,-3.24556
82.40000,-13.73370,-3.24794
82.45001,-13.74183,-3.24927
82.50001,-13.75010,-3.24941
82.55000,-13.75863,-3.25098
82.60001,-13.76677,-3.24977
82.65000,-13.77503,-3.25245
82.70001,-13.78343,-3.25132
82.75001,-13.79170,-3.25381
82.80000,-13.79997,-3.25249
82.85001,-13.80850,-3.25628
82.90000,-13.81677,-3.25532
82.95001,-13.82530,-3.25806
83.00001,-13.83357,-3.25827
83.05000,-13.84170,-3.26150
83.10001,-13.85037,-3.25942
83.15000,-13.85877,-3.26457
83.20001,-13.86677,-3.26208
83.25001,-13.87530,-3.26524
83.30000,-13.88370,-3.26362
83.35001,-13.89170,-3.26748
83.40000,-13.90010,-3.26435
83.45001,-13.90863,-3.26925
83.50001,-13.91663,-3.26558
83.55000,-13.92490,-3.26950
83.60001,-13.93343,-3.26447
83.65000,-13.94170,-3.26691
83.70001,-13.94997,-3.26359
83.75001,-13.95863,-3.26506
83.80000,-13.96703,-3.26269
83.85001,-13.97543,-3.26529
83.90000,-13.98383,-3.26369
83.95001,-13.99197,-3.26468
84.00001,-14.00037,-3.26292
84.05000,-14.00877,-3.26502
84.10001,-14.01677,-3.26351
84.15000,-14.02530,-3.26442
84.20001,-14.03370,-3.26473
84.25001,-14.04170,-3.26546
84.30000,-14.05010,-3.26429
84.35001,-14.05863,-3.26504
84.40000,-14.06677,-3.26782
84.45001,-14.07517,-3.26431
84.50001,-14.08383,-3.26926
84.55000,-14.09197,-3.26690
84.60001,-14.10010,-3.26985
84.65000,-14.10863,-3.26834
84.70001,-14.11717,-3.27325
84.75001,-14.12530,-3.27081
84.80000,-14.13370,-3.27308
84.85001,-14.14197,-3.27379
84.90000,-14.15023,-3.27618
84.95001,-14.15850,-3.27660
85.00001,-14.16677,-3.27885
85.05000,-14.17530,-3.27953
85.10001,-14.18357,-3.28127
85.15000,-14.19170,-3.28266
85.20001,-14.20010,-3.28218
85.25001,-14.20863,-3.28647
85.30000,-14.21690,-3.28737
85.35001,-14.22517,-3.28880
85.40000,-14.23383,-3.28978
85.45001,-14.24210,-3.29253
85.50001,-14.25023,-3.29281
85.55000,-14.25863,-3.29412
85.60001,-14.26703,-3.29547
85.65000,-14.27517,-3.29879
85.70001,-14.28343,-3.29870
85.75001,-14.29197,-3.30208
85.80000,-14.30010,-3.30246
85.85001,-14.30837,-3.30612
85.90000,-14.31676,-3.30695
85.95001,-14.32503,-3.31022
86.00001,-14.33343,-3.31203
86.05000,-14.34170,-3.31570
86.10001,-14.34997,-3.31589
86.15000,-14.35863,-3.32010
86.20001,-14.36676,-3.32172
86.25001,-14.37503,-3.32311
86.30000,-14.38356,-3.32586
86.35001,-14.39197,-3.32907
86.40000,-14.40010,-3.33190
86.45001,-14.40863,-3.33358
86.50001,-14.41703,-3.33644
86.55000,-14.42503,-3.33840
86.60001,-14.43330,-3.33958
86.65000,-14.44197,-3.34342
86.70001,-14.44996,-3.34394
86.75001,-14.45823,-3.34820
86.80000,-14.46676,-3.34792
86.85001,-14.47516,-3.35390
86.90000,-14.48343,-3.35543
86.95001,-14.49196,-3.35995
87.00001,-14.50023,-3.36321
87.05000,-14.50863,-3.36590
87.10001,-14.51703,-3.36947
87.15000,-14.52516,-3.37426
87.20001,-14.53370,-3.37525
87.25001,-14.54196,-3.38179
87.30000,-14.55010,-3.38286
87.35001,-14.55863,-3.38784
87.40000,-14.56703,-3.39040
87.45001,-14.57516,-3.39520
87.50001,-14.58343,-3.39727
87.55000,-14.59196,-3.40288
87.60001,-14.59996,-3.40462
87.65000,-14.60823,-3.40891
87.70001,-14.61690,-3.41338
87.75001,-14.62530,-3.42039
87.80000,-14.63356,-3.42307
87.85001,-14.64210,-3.42881
87.90000,-14.65050,-3.43315
87.95001,-14.65863,-3.43843
88.00001,-14.66703,-3.43875
88.05000,-14.67543,-3.44751
88.10001,-14.68370,-3.44813
88.15000,-14.69196,-3.45484
88.20001,-14.70023,-3.45680
88.25001,-14.70863,-3.46244
88.30000,-14.71690,-3.46504
88.35001,-14.72516,-3.47047
88.40000,-14.73343,-3.47215
88.45001,-14.74196,-3.47689
88.50001,-14.75010,-3.48258
88.55000,-14.75836,-3.48334
88.60001,-14.76703,-3.49000
88.65000,-14.77530,-3.49366
88.70001,-14.78343,-3.49645
88.75001,-14.79183,-3.49933
88.80000,-14.80050,-3.50437
88.85001,-14.80850,-3.50703
88.90000,-14.81676,-3.51025
88.95001,-14.82530,-3.51442
89.00001,-14.83343,-3.51803
89.05000,-14.84170,-3.52241
89.10001,-14.85010,-3.52439
89.15000,-14.85836,-3.52941
89.20001,-14.86676,-3.53239
89.25001,-14.87503,-3.53667
89.30000,-14.88343,-3.54033
89.35001,-14.89196,-3.54264
89.40000,-14.90023,-3.54988
89.45001,-14.90836,-3.54938
89.50001,-14.91703,-3.55518
89.55000,-14.92530,-3.55793
89.60001,-14.93330,-3.56258
89.65000,-14.94183,-3.56209
89.70001,-14.95036,-3.56970
89.75001,-14.95836,-3.57050
89.80000,-14.96676,-3.57404
89.85001,-14.97543,-3.57792
89.90000,-14.98343,-3.58294
89.95001,-14.99156,-3.58239
90.00001,-15.00023,-3.58925
90.05000,-15.00850,-3.59215
90.10001,-15.01676,-3.59727
90.15000,-15.02530,-3.59687
90.20001,-15.03370,-3.60593
90.25001,-15.04183,-3.60576
90.30000,-15.05023,-3.61024
90.34200,-15.05716,-3.61214
