Time,Extension,Load
(sec),(mm),(N)
0.00000,-1.33506,-0.00687
0.05000,-1.33613,-0.00388
0.10000,-1.34040,-0.00825
0.15000,-1.34933,-0.00988
0.20000,-1.35986,-0.01517
0.25000,-1.37053,-0.01753
0.30000,-1.38026,-0.02311
0.35000,-1.38973,-0.02542
0.40000,-1.39933,-0.02968
0.45000,-1.40800,-0.03014
0.50000,-1.41680,-0.03339
0.55000,-1.42573,-0.03896
0.60000,-1.43400,-0.03657
0.65000,-1.44240,-0.04329
0.70000,-1.45120,-0.04179
0.75000,-1.45960,-0.04884
0.80000,-1.46786,-0.04724
0.85000,-1.47653,-0.05359
0.90000,-1.48493,-0.05205
0.95000,-1.49320,-0.05940
1.00000,-1.50160,-0.05865
1.05000,-1.51000,-0.06495
1.10000,-1.51840,-0.05982
1.15000,-1.52680,-0.07371
1.20000,-1.53480,-0.06732
1.25000,-1.54346,-0.07841
1.30000,-1.55173,-0.07230
1.35000,-1.55973,-0.08383
1.40000,-1.56826,-0.07990
1.45000,-1.57680,-0.09296
1.50000,-1.58493,-0.08698
1.55000,-1.59320,-0.09895
1.60000,-1.60186,-0.09645
1.65000,-1.61000,-0.10643
1.70000,-1.61813,-0.10462
1.75000,-1.62666,-0.11613
1.80000,-1.63493,-0.11471
1.85000,-1.64320,-0.12206
1.90000,-1.65160,-0.12346
1.95000,-1.66000,-0.13220
2.00000,-1.66826,-0.13284
2.05000,-1.67666,-0.14044
2.10000,-1.68493,-0.14144
2.15000,-1.69333,-0.14876
2.20000,-1.70146,-0.15054
2.25000,-1.70973,-0.15769
2.30000,-1.71826,-0.16008
2.35000,-1.72666,-0.16666
2.40000,-1.73493,-0.16990
2.45000,-1.74320,-0.17567
2.50000,-1.75186,-0.17891
2.55000,-1.76013,-0.18629
2.60000,-1.76826,-0.18945
2.65000,-1.77666,-0.19411
2.70000,-1.78506,-0.19919
2.75000,-1.79306,-0.20355
2.80000,-1.80146,-0.20922
2.85000,-1.81013,-0.21480
2.90000,-1.81826,-0.21945
2.95000,-1.82653,-0.22388
3.00000,-1.83493,-0.23002
3.05000,-1.84306,-0.23372
3.10000,-1.85146,-0.24053
3.15000,-1.85986,-0.24296
3.20000,-1.86826,-0.25096
3.25000,-1.87666,-0.25278
3.30000,-1.88506,-0.26075
3.35000,-1.89320,-0.26370
3.40000,-1.90173,-0.27194
3.45000,-1.91000,-0.27460
3.50000,-1.91813,-0.28125
3.55000,-1.92680,-0.28410
3.60000,-1.93506,-0.29353
3.65000,-1.94320,-0.29497
3.70000,-1.95160,-0.30287
3.75000,-1.96000,-0.30498
3.80000,-1.96800,-0.31453
3.85000,-1.97640,-0.31456
3.90000,-1.98506,-0.32543
3.95000,-1.99333,-0.32621
4.00000,-2.00160,-0.33562
4.05000,-2.01013,-0.33652
4.10000,-2.01840,-0.34658
4.15000,-2.02666,-0.34737
4.20000,-2.03506,-0.35868
4.25000,-2.04333,-0.35922
4.30000,-2.05186,-0.36735
4.35000,-2.06013,-0.36869
4.40000,-2.06826,-0.37978
4.45000,-2.07680,-0.38030
4.50000,-2.08519,-0.39080
4.55000,-2.09319,-0.39077
4.60000,-2.10159,-0.40089
4.65000,-2.10986,-0.40193
4.70000,-2.11799,-0.41197
4.75000,-2.12653,-0.41264
4.80000,-2.13519,-0.42428
4.85000,-2.14333,-0.42361
4.90000,-2.15159,-0.43549
4.95000,-2.16013,-0.43386
5.00000,-2.16839,-0.44633
5.05000,-2.17653,-0.44659
5.10000,-2.18519,-0.45686
5.15000,-2.19359,-0.45758
5.20000,-2.20159,-0.46853
5.25000,-2.20999,-0.46895
5.30000,-2.21826,-0.48073
5.35000,-2.22666,-0.47971
5.40000,-2.23493,-0.49265
5.45000,-2.24306,-0.49189
5.50000,-2.25159,-0.50314
5.55000,-2.26013,-0.50340
5.60000,-2.26826,-0.51618
5.65000,-2.27653,-0.51561
5.70000,-2.28506,-0.52603
5.75000,-2.29333,-0.52745
5.80000,-2.30159,-0.53794
5.85000,-2.31013,-0.53905
5.90000,-2.31839,-0.54984
5.95000,-2.32666,-0.55018
6.00000,-2.33493,-0.55948
6.05000,-2.34346,-0.56381
6.10000,-2.35159,-0.57023
6.15000,-2.35973,-0.57602
6.20000,-2.36826,-0.58010
6.25000,-2.37653,-0.58747
6.30000,-2.38466,-0.59158
6.35000,-2.39319,-0.59892
6.40000,-2.40159,-0.60246
6.45000,-2.40999,-0.61033
6.50000,-2.41839,-0.61531
6.55000,-2.42666,-0.62035
6.60000,-2.43519,-0.62605
6.65000,-2.44333,-0.63283
6.70000,-2.45133,-0.63839
6.75000,-2.45986,-0.64341
6.80000,-2.46839,-0.64949
6.85000,-2.47653,-0.65535
6.90000,-2.48493,-0.66113
6.95000,-2.49333,-0.66754
7.00000,-2.50146,-0.67181
7.05000,-2.50973,-0.67738
7.10000,-2.51839,-0.68415
7.15000,-2.52666,-0.68946
7.20000,-2.53493,-0.69627
7.25000,-2.54333,-0.70078
7.30000,-2.55173,-0.70901
7.35000,-2.55999,-0.71242
7.40000,-2.56826,-0.71936
7.45000,-2.57666,-0.72384
7.50000,-2.58506,-0.73043
7.55000,-2.59346,-0.73566
7.60000,-2.60146,-0.74230
7.65000,-2.60999,-0.74510
7.70000,-2.61826,-0.75324
7.75000,-2.62626,-0.75792
7.80000,-2.63479,-0.76308
7.85000,-2.64333,-0.76904
7.90000,-2.65133,-0.77308
7.95000,-2.65986,-0.78076
8.00000,-2.66853,-0.78427
8.05000,-2.67666,-0.79333
8.10000,-2.68506,-0.79273
8.15000,-2.69359,-0.80632
8.20000,-2.70186,-0.80597
8.25000,-2.70999,-0.81388
8.30000,-2.71839,-0.81727
8.35000,-2.72679,-0.82727
8.40000,-2.73493,-0.82871
8.45000,-2.74319,-0.83731
8.50000,-2.75159,-0.83834
8.55000,-2.75999,-0.85077
8.60000,-2.76839,-0.85136
8.65000,-2.77639,-0.85982
8.70000,-2.78479,-0.86335
8.75000,-2.79333,-0.87122
8.80000,-2.80159,-0.87493
8.85000,-2.80999,-0.88116
8.90000,-2.81853,-0.88740
8.95000,-2.82666,-0.89446
9.00000,-2.83479,-0.89449
9.05000,-2.84333,-0.90695
9.10000,-2.85173,-0.90913
9.15000,-2.85986,-0.91473
9.20000,-2.86826,-0.92028
9.25000,-2.87679,-0.92535
9.30000,-2.88479,-0.93248
9.35000,-2.89306,-0.93327
9.40000,-2.90159,-0.94492
9.45000,-2.90986,-0.94692
9.50000,-2.91813,-0.95172
9.55000,-2.92653,-0.96168
9.60000,-2.93493,-0.96191
9.65000,-2.94333,-0.96986
9.70000,-2.95173,-0.97655
9.75000,-2.95999,-0.97904
9.80000,-2.96853,-0.98347
9.85000,-2.97666,-0.99349
9.90000,-2.98493,-0.99492
9.95000,-2.99346,-1.00214
10.00000,-3.00186,-1.00421
10.05000,-3.00973,-1.01684
10.10000,-3.01826,-1.01251
10.15000,-3.02666,-1.02910
10.20000,-3.03466,-1.02340
10.25000,-3.04293,-1.03805
10.30000,-3.05173,-1.03750
10.35000,-3.05986,-1.04670
10.40000,-3.06813,-1.04869
10.45000,-3.07666,-1.05901
10.50000,-3.08506,-1.05981
10.55000,-3.09333,-1.07071
10.60000,-3.10173,-1.06704
10.65000,-3.10999,-1.08565
10.70000,-3.11839,-1.07818
10.75000,-3.12666,-1.09314
10.80000,-3.13479,-1.09022
10.85000,-3.14346,-1.10357
10.90000,-3.15173,-1.10152
10.95000,-3.15973,-1.11220
11.00000,-3.16826,-1.11072
11.05000,-3.17666,-1.12601
11.10000,-3.18479,-1.12079
11.15000,-3.19319,-1.13590
11.20000,-3.20186,-1.13273
11.25000,-3.20999,-1.14592
11.30000,-3.21826,-1.14484
11.35000,-3.22693,-1.15573
11.40000,-3.23506,-1.15681
11.45000,-3.24333,-1.16688
11.50000,-3.25173,-1.16933
11.55000,-3.26013,-1.17878
11.60000,-3.26839,-1.18070
11.65000,-3.27679,-1.19090
11.70000,-3.28506,-1.19345
11.75000,-3.29346,-1.20115
11.80000,-3.30159,-1.20558
11.85000,-3.30986,-1.21241
11.90000,-3.31826,-1.21682
11.95000,-3.32666,-1.22426
12.00000,-3.33493,-1.22845
12.05000,-3.34319,-1.23453
12.10000,-3.35186,-1.23897
12.15000,-3.36013,-1.24735
12.20000,-3.36826,-1.25066
12.25000,-3.37679,-1.25618
12.30000,-3.38519,-1.26363
12.35000,-3.39333,-1.26790
12.40000,-3.40159,-1.27546
12.45000,-3.41012,-1.27901
12.50000,-3.41812,-1.28693
12.55000,-3.42639,-1.29159
12.60000,-3.43492,-1.29932
12.65000,-3.44319,-1.30222
12.70000,-3.45146,-1.31021
12.75000,-3.45986,-1.31644
12.80000,-3.46826,-1.32197
12.85000,-3.47666,-1.32657
12.90000,-3.48492,-1.33462
12.95000,-3.49319,-1.33995
13.00000,-3.50172,-1.34480
13.05000,-3.50999,-1.35102
13.10000,-3.51812,-1.35697
13.15000,-3.52679,-1.36387
13.20000,-3.53506,-1.36716
13.25000,-3.54306,-1.37535
13.30000,-3.55159,-1.37955
13.35000,-3.56012,-1.38640
13.40000,-3.56812,-1.39217
13.45000,-3.57652,-1.39767
13.50000,-3.58506,-1.40367
13.55000,-3.59332,-1.40897
13.60000,-3.60159,-1.41417
13.65000,-3.61012,-1.41967
13.70000,-3.61839,-1.42375
13.75000,-3.62666,-1.43195
13.80000,-3.63506,-1.43560
13.85000,-3.64332,-1.44176
13.90000,-3.65172,-1.44584
13.95000,-3.66012,-1.45421
14.00000,-3.66812,-1.45556
14.05000,-3.67679,-1.46551
14.10000,-3.68506,-1.46724
14.15000,-3.69306,-1.47213
14.20000,-3.70159,-1.47957
14.25000,-3.70999,-1.48335
14.30000,-3.71812,-1.48819
14.35000,-3.72652,-1.49488
14.40000,-3.73519,-1.50077
14.45000,-3.74332,-1.50558
14.50000,-3.75159,-1.51003
14.55000,-3.76026,-1.51657
14.60000,-3.76839,-1.52275
14.65000,-3.77652,-1.52422
14.70000,-3.78492,-1.52952
14.75000,-3.79332,-1.53353
14.80000,-3.80146,-1.53788
14.85000,-3.80999,-1.54351
14.90000,-3.81812,-1.54907
14.95000,-3.82666,-1.55144
15.00000,-3.83492,-1.56039
15.05000,-3.84306,-1.56103
15.10000,-3.85146,-1.56603
15.15000,-3.85999,-1.57013
15.20000,-3.86812,-1.57630
15.25000,-3.87652,-1.57911
15.30000,-3.88506,-1.58620
15.35000,-3.89346,-1.58997
15.40000,-3.90159,-1.59394
15.45000,-3.91012,-1.59798
15.50000,-3.91839,-1.60279
15.55000,-3.92652,-1.60497
15.60000,-3.93492,-1.61169
15.65000,-3.94346,-1.61506
15.70000,-3.95159,-1.62367
15.75000,-3.95972,-1.62745
15.80000,-3.96826,-1.63414
15.85000,-3.97652,-1.64014
15.90000,-3.98466,-1.64485
15.95000,-3.99319,-1.65237
16.00000,-4.00159,-1.65640
16.05000,-4.01012,-1.66431
16.10000,-4.01839,-1.66845
16.15000,-4.02666,-1.67552
16.20000,-4.03519,-1.67969
16.25000,-4.04346,-1.68697
16.30000,-4.05159,-1.68989
16.35000,-4.06012,-1.69823
16.40000,-4.06839,-1.70166
16.45000,-4.07652,-1.70770
16.50000,-4.08492,-1.71303
16.55000,-4.09346,-1.71836
16.60000,-4.10146,-1.72343
16.65000,-4.10972,-1.72889
16.70000,-4.11826,-1.73396
16.75000,-4.12652,-1.74023
16.80000,-4.13492,-1.74482
16.85000,-4.14332,-1.75028
16.90000,-4.15172,-1.75483
16.95000,-4.15999,-1.76076
17.00000,-4.16839,-1.76500
17.05000,-4.17666,-1.76911
17.10000,-4.18506,-1.77162
17.15000,-4.19346,-1.75223
17.20000,-4.20146,-1.73219
17.25000,-4.20999,-1.74599
17.30000,-4.21839,-1.75583
17.35000,-4.22639,-1.76378
17.40000,-4.23492,-1.77036
17.45000,-4.24332,-1.77880
17.50000,-4.25146,-1.78337
17.55000,-4.25986,-1.78943
17.60000,-4.26852,-1.79507
17.65000,-4.27666,-1.80052
17.70000,-4.28479,-1.80333
17.75000,-4.29346,-1.80951
17.80000,-4.30172,-1.81255
17.85000,-4.30999,-1.81868
17.90000,-4.31839,-1.82199
17.95000,-4.32679,-1.82676
18.00000,-4.33492,-1.83131
18.05000,-4.34332,-1.83601
18.10000,-4.35172,-1.84148
18.15000,-4.36012,-1.84552
18.20000,-4.36839,-1.85125
18.25000,-4.37652,-1.85611
18.30000,-4.38492,-1.86137
18.35000,-4.39346,-1.86621
18.40000,-4.40159,-1.87244
18.45000,-4.40999,-1.87685
18.50000,-4.41852,-1.88192
18.55000,-4.42679,-1.88688
18.60000,-4.43479,-1.89202
18.65000,-4.44332,-1.89590
18.70000,-4.45172,-1.90259
18.75000,-4.45986,-1.90554
18.80000,-4.46826,-1.91095
18.85000,-4.47666,-1.91369
18.90000,-4.48492,-1.91953
18.95000,-4.49306,-1.92288
19.00000,-4.50146,-1.92749
19.05000,-4.50972,-1.93161
19.10000,-4.51812,-1.93432
19.15000,-4.52652,-1.94060
19.20000,-4.53492,-1.94271
19.25000,-4.54332,-1.94895
19.30000,-4.55172,-1.95336
19.35000,-4.55999,-1.95774
19.40000,-4.56852,-1.96149
19.45000,-4.57679,-1.96737
19.50000,-4.58479,-1.97029
19.55000,-4.59332,-1.97540
19.60000,-4.60172,-1.97947
19.65000,-4.60972,-1.98392
19.70000,-4.61812,-1.98805
19.75000,-4.62666,-1.99329
19.80000,-4.63466,-1.99674
19.85000,-4.64292,-2.00053
19.90000,-4.65159,-2.00590
19.95000,-4.65999,-2.00932
20.00000,-4.66826,-2.01486
20.05000,-4.67679,-2.01846
20.10000,-4.68506,-2.02189
20.15000,-4.69332,-2.02592
20.20000,-4.70172,-2.02872
20.25000,-4.70999,-2.03405
20.30000,-4.71852,-2.03605
20.35000,-4.72679,-2.04115
20.40000,-4.73492,-2.04391
20.45000,-4.74345,-2.04385
20.50000,-4.75172,-2.04750
20.55000,-4.75972,-2.05123
20.60000,-4.76826,-2.05396
20.65000,-4.77666,-2.05906
20.70000,-4.78479,-2.06001
20.75000,-4.79319,-2.06488
20.80000,-4.80185,-2.06692
20.85000,-4.80999,-2.06857
20.90000,-4.81826,-2.07372
20.95000,-4.82679,-2.07390
21.00000,-4.83505,-2.07779
21.05000,-4.84319,-2.07945
21.10000,-4.85172,-2.08431
21.15000,-4.86012,-2.08522
21.20000,-4.86839,-2.09103
21.25000,-4.87666,-2.09169
21.30000,-4.88492,-2.09598
21.35000,-4.89332,-2.09724
21.40000,-4.90159,-2.10326
21.45000,-4.90972,-2.10271
21.50000,-4.91825,-2.10722
21.55000,-4.92679,-2.10836
21.60000,-4.93492,-2.11377
21.65000,-4.94319,-2.11185
21.70000,-4.95172,-2.11810
21.75000,-4.95999,-2.11966
21.80000,-4.96812,-2.12109
21.85000,-4.97665,-2.12550
21.90000,-4.98519,-2.12677
21.95000,-4.99332,-2.12984
22.00000,-5.00159,-2.13159
22.05000,-5.01012,-2.13574
22.10000,-5.01825,-2.13504
22.15000,-5.02639,-2.14097
22.20000,-5.03479,-2.13887
22.25000,-5.04305,-2.14578
22.30000,-5.05145,-2.14104
22.35000,-5.05985,-2.15280
22.40000,-5.06825,-2.14545
22.45000,-5.07665,-2.15661
22.50000,-5.08505,-2.14979
22.55000,-5.09319,-2.15962
22.60000,-5.10172,-2.15669
22.65000,-5.10999,-2.16443
22.70000,-5.11812,-2.15972
22.75000,-5.12679,-2.16778
22.80000,-5.13505,-2.16705
22.85000,-5.14319,-2.17171
22.90000,-5.15159,-2.17246
22.95000,-5.16012,-2.17790
23.00000,-5.16812,-2.17832
23.05000,-5.17639,-2.18087
23.10000,-5.18505,-2.18617
23.15000,-5.19319,-2.18758
23.20000,-5.20145,-2.19078
23.25000,-5.21012,-2.19370
23.30000,-5.21839,-2.19650
23.35000,-5.22679,-2.20192
23.40000,-5.23505,-2.20216
23.45000,-5.24332,-2.20683
23.50000,-5.25172,-2.21013
23.55000,-5.25999,-2.21128
23.60000,-5.26812,-2.21809
23.65000,-5.27679,-2.21615
23.70000,-5.28505,-2.22699
23.75000,-5.29305,-2.22553
23.80000,-5.30159,-2.23197
23.85000,-5.30999,-2.23336
23.90000,-5.31812,-2.23898
23.95000,-5.32639,-2.24217
24.00000,-5.33519,-2.24624
24.05000,-5.34332,-2.25119
24.10000,-5.35159,-2.25399
24.15000,-5.36012,-2.25882
24.20000,-5.36839,-2.26155
24.25000,-5.37665,-2.26646
24.30000,-5.38505,-2.26964
24.35000,-5.39345,-2.27301
24.40000,-5.40172,-2.27804
24.45000,-5.40999,-2.28243
24.50000,-5.41825,-2.28622
24.55000,-5.42665,-2.29246
24.60000,-5.43505,-2.29246
24.65000,-5.44305,-2.29987
24.70000,-5.45159,-2.29970
24.75000,-5.46012,-2.30644
24.80000,-5.46825,-2.31117
24.85000,-5.47652,-2.31284
24.90000,-5.48505,-2.32016
24.95000,-5.49332,-2.32152
25.00000,-5.50159,-2.33028
25.05000,-5.50999,-2.33060
25.10000,-5.51852,-2.34070
25.15000,-5.52652,-2.33923
25.20000,-5.53492,-2.34760
25.25000,-5.54332,-2.34903
25.30000,-5.55159,-2.35454
25.35000,-5.55985,-2.35709
25.40000,-5.56825,-2.36397
25.45000,-5.57652,-2.35960
25.50000,-5.58479,-2.37026
25.55000,-5.59319,-2.36615
25.60000,-5.60159,-2.37376
25.65000,-5.60999,-2.37338
25.70000,-5.61839,-2.38501
25.75000,-5.62652,-2.38235
25.80000,-5.63505,-2.39389
25.85000,-5.64332,-2.39309
25.90000,-5.65159,-2.40268
25.95000,-5.65999,-2.40138
26.00000,-5.66839,-2.41317
26.05000,-5.67652,-2.41109
26.10000,-5.68492,-2.41925
26.15000,-5.69332,-2.42113
26.20000,-5.70132,-2.42683
26.25000,-5.70972,-2.42897
26.30000,-5.71825,-2.43530
26.35000,-5.72652,-2.43696
26.40000,-5.73479,-2.44470
26.45000,-5.74332,-2.44775
26.50000,-5.75172,-2.45289
26.55000,-5.75999,-2.45740
26.60000,-5.76825,-2.46289
26.65000,-5.77665,-2.46635
26.70000,-5.78519,-2.47219
26.75000,-5.79345,-2.47572
26.80000,-5.80159,-2.48164
26.85000,-5.81012,-2.48479
26.90000,-5.81852,-2.49204
26.95000,-5.82652,-2.49296
27.00000,-5.83492,-2.50133
27.05000,-5.84332,-2.50276
27.10000,-5.85145,-2.50922
27.15000,-5.85985,-2.51289
27.20000,-5.86852,-2.51698
27.25000,-5.87665,-2.52260
27.30000,-5.88505,-2.52383
27.35000,-5.89359,-2.53153
27.40000,-5.90172,-2.53209
27.45000,-5.90999,-2.53999
27.50000,-5.91839,-2.54149
27.55000,-5.92665,-2.54818
27.60000,-5.93505,-2.55128
27.65000,-5.94332,-2.55592
27.70000,-5.95159,-2.55864
27.75000,-5.95999,-2.56355
27.80000,-5.96825,-2.56562
27.85000,-5.97639,-2.57195
27.90000,-5.98479,-2.57087
27.95000,-5.99332,-2.57953
28.00000,-6.00159,-2.57847
28.05000,-6.00999,-2.58749
28.10000,-6.01852,-2.58667
28.15000,-6.02665,-2.59702
28.20000,-6.03492,-2.59405
28.25000,-6.04332,-2.60426
28.30000,-6.05172,-2.60428
28.35000,-6.05985,-2.61261
28.40000,-6.06812,-2.61190
28.45000,-6.07665,-2.62136
28.50000,-6.08479,-2.62135
28.55000,-6.09318,-2.62915
28.60000,-6.10158,-2.62927
28.65000,-6.10985,-2.63793
28.70000,-6.11812,-2.63872
28.75000,-6.12652,-2.64454
28.80000,-6.13505,-2.64707
28.85000,-6.14345,-2.65324
28.90000,-6.15158,-2.65707
28.95000,-6.15985,-2.65983
29.00000,-6.16839,-2.66568
29.05000,-6.17665,-2.66769
29.10000,-6.18478,-2.67361
29.15000,-6.19332,-2.67602
29.20000,-6.20172,-2.68099
29.25000,-6.20972,-2.68411
29.30000,-6.21812,-2.68816
29.35000,-6.22665,-2.69247
29.40000,-6.23478,-2.69766
29.45000,-6.24305,-2.70054
29.50000,-6.25172,-2.70526
29.55000,-6.25985,-2.70830
29.60000,-6.26812,-2.71413
29.65000,-6.27665,-2.71747
29.70000,-6.28505,-2.72194
29.75000,-6.29345,-2.72589
29.80000,-6.30185,-2.73094
29.85000,-6.30998,-2.73345
29.90000,-6.31838,-2.73829
29.95000,-6.32665,-2.74172
30.00000,-6.33478,-2.74689
30.05000,-6.34332,-2.74823
30.10000,-6.35172,-2.75414
30.15000,-6.35958,-2.75652
30.20000,-6.36812,-2.76145
30.25000,-6.37665,-2.76290
30.30000,-6.38478,-2.77045
30.35000,-6.39318,-2.77194
30.40000,-6.40185,-2.77718
30.45000,-6.40998,-2.78056
30.50000,-6.41812,-2.78396
30.55000,-6.42678,-2.78742
30.60000,-6.43505,-2.79264
30.65000,-6.44332,-2.79451
30.70000,-6.45185,-2.80072
30.75000,-6.46012,-2.80281
30.80000,-6.46838,-2.80724
30.85000,-6.47665,-2.81054
30.90000,-6.48492,-2.81377
30.95000,-6.49332,-2.81815
31.00000,-6.50172,-2.82160
31.05000,-6.50985,-2.82580
31.10000,-6.51825,-2.82842
31.15000,-6.52665,-2.83335
31.20000,-6.53478,-2.83608
31.25000,-6.54318,-2.83964
31.30000,-6.55185,-2.84448
31.35000,-6.55998,-2.84800
31.40000,-6.56825,-2.85199
31.45000,-6.57678,-2.85487
31.50000,-6.58505,-2.85988
31.55000,-6.59318,-2.86223
31.60000,-6.60158,-2.86614
31.65000,-6.60998,-2.86920
31.70000,-6.61812,-2.87397
31.75000,-6.62652,-2.87664
31.80000,-6.63492,-2.88062
31.85000,-6.64305,-2.88338
31.90000,-6.65132,-2.88702
31.95000,-6.65985,-2.89140
32.00000,-6.66825,-2.89486
32.05000,-6.67665,-2.89898
32.10000,-6.68492,-2.90405
32.15000,-6.69318,-2.90645
32.20000,-6.70185,-2.91146
32.25000,-6.70998,-2.91559
32.30000,-6.71812,-2.91986
32.35000,-6.72678,-2.92240
32.40000,-6.73505,-2.92853
32.45000,-6.74305,-2.93142
32.50000,-6.75145,-2.93530
32.55000,-6.75998,-2.93975
32.60000,-6.76812,-2.94471
32.65000,-6.77638,-2.94803
32.70000,-6.78505,-2.95329
32.75000,-6.79332,-2.95815
32.80000,-6.80158,-2.96244
32.85000,-6.81012,-2.96646
32.90000,-6.81838,-2.97184
32.95000,-6.82665,-2.97490
33.00000,-6.83492,-2.97970
33.05000,-6.84332,-2.98265
33.10000,-6.85172,-2.98835
33.15000,-6.86012,-2.99146
33.20000,-6.86812,-2.99553
33.25000,-6.87678,-2.99823
33.30000,-6.88505,-2.98658
33.35000,-6.89305,-2.98312
33.40000,-6.90158,-2.99188
33.45000,-6.91012,-2.99897
33.50000,-6.91812,-3.00492
33.55000,-6.92652,-3.01008
33.60000,-6.93518,-3.01618
33.65000,-6.94332,-3.02240
33.70000,-6.95158,-3.02716
33.75000,-6.96012,-3.03231
33.80000,-6.96838,-3.03787
33.85000,-6.97665,-3.04394
33.90000,-6.98505,-3.04642
33.95000,-6.99345,-3.05411
34.00000,-7.00172,-3.05664
34.05000,-7.00998,-3.06366
34.10000,-7.01812,-3.06463
34.15000,-7.02665,-3.07266
34.20000,-7.03492,-3.07482
34.25000,-7.04305,-3.08120
34.30000,-7.05158,-3.08415
34.35000,-7.05998,-3.09011
34.40000,-7.06825,-3.09489
34.45000,-7.07652,-3.09875
34.50000,-7.08505,-3.10399
34.55000,-7.09332,-3.10775
34.60000,-7.10158,-3.11164
34.65000,-7.11012,-3.11803
34.70000,-7.11852,-3.11986
34.75000,-7.12665,-3.12562
34.80000,-7.13492,-3.12999
34.85000,-7.14345,-3.13291
34.90000,-7.15158,-3.13840
34.95000,-7.15985,-3.13996
35.00000,-7.16825,-3.14657
35.05000,-7.17652,-3.14789
35.10000,-7.18478,-3.15342
35.15000,-7.19318,-3.15583
35.20000,-7.20158,-3.16140
35.25000,-7.20998,-3.16490
35.30000,-7.21825,-3.16785
35.35000,-7.22652,-3.17349
35.40000,-7.23518,-3.17645
35.45000,-7.24332,-3.18017
35.50000,-7.25158,-3.18467
35.55000,-7.26012,-3.18735
35.60000,-7.26838,-3.19238
35.65000,-7.27638,-3.19478
35.70000,-7.28492,-3.19871
35.75000,-7.29345,-3.20262
35.80000,-7.30145,-3.20745
35.85000,-7.30972,-3.20664
35.90000,-7.31838,-3.21580
35.95000,-7.32638,-3.21523
36.00000,-7.33465,-3.22197
36.05000,-7.34318,-3.22221
36.10000,-7.35158,-3.23046
36.15000,-7.35985,-3.22986
36.20000,-7.36825,-3.23719
36.25000,-7.37652,-3.23733
36.30000,-7.38505,-3.24394
36.35000,-7.39345,-3.24618
36.40000,-7.40158,-3.25121
36.45000,-7.41012,-3.25047
36.50000,-7.41838,-3.26218
36.55000,-7.42638,-3.25806
36.60000,-7.43492,-3.26549
36.65000,-7.44332,-3.26753
36.70000,-7.45145,-3.27219
36.75000,-7.45998,-3.27452
36.80000,-7.46852,-3.27872
36.85000,-7.47652,-3.28370
36.90000,-7.48492,-3.28318
36.95000,-7.49345,-3.29159
37.00000,-7.50171,-3.29164
37.05000,-7.50998,-3.29520
37.10000,-7.51838,-3.30017
37.15000,-7.52665,-3.30303
37.20000,-7.53492,-3.30360
37.25000,-7.54331,-3.30961
37.30000,-7.55158,-3.31049
37.35000,-7.56011,-3.31524
37.40000,-7.56838,-3.31571
37.45000,-7.57651,-3.32056
37.50000,-7.58491,-3.32128
37.55000,-7.59331,-3.32553
37.60000,-7.60158,-3.32728
37.65000,-7.60998,-3.33115
37.70000,-7.61851,-3.33218
37.75000,-7.62678,-3.33719
37.80000,-7.63491,-3.33736
37.85000,-7.64345,-3.34181
37.90000,-7.65185,-3.34279
37.95000,-7.65985,-3.34768
38.00000,-7.66811,-3.34645
38.05000,-7.67665,-3.35268
38.10000,-7.68478,-3.35210
38.15000,-7.69305,-3.35670
38.20000,-7.70145,-3.35852
38.25000,-7.70971,-3.36225
38.30000,-7.71798,-3.36310
38.35000,-7.72651,-3.36889
38.40000,-7.73491,-3.36934
38.45000,-7.74331,-3.37407
38.50000,-7.75158,-3.37646
38.55000,-7.75985,-3.37833
38.60000,-7.76838,-3.38175
38.65000,-7.77665,-3.38515
38.70000,-7.78491,-3.38609
38.75000,-7.79358,-3.38762
38.80000,-7.80171,-3.39475
38.85000,-7.80971,-3.39430
38.90000,-7.81811,-3.39795
38.95000,-7.82665,-3.39393
39.00000,-7.83465,-3.40139
39.05000,-7.84305,-3.39733
39.10000,-7.85171,-3.40680
39.15000,-7.85985,-3.40627
39.20000,-7.86825,-3.41240
39.25000,-7.87665,-3.41315
39.30000,-7.88505,-3.41992
39.35000,-7.89331,-3.42204
39.40000,-7.90185,-3.42604
39.45000,-7.90998,-3.42944
39.50000,-7.91838,-3.43271
39.55000,-7.92678,-3.43660
39.60000,-7.93478,-3.44036
39.65000,-7.94331,-3.44278
39.70000,-7.95171,-3.44528
39.75000,-7.95971,-3.45251
39.80000,-7.96825,-3.44740
39.85000,-7.97665,-3.45943
39.90000,-7.98478,-3.45555
39.95000,-7.99318,-3.46253
40.00000,-8.00185,-3.46205
40.05000,-8.00985,-3.46998
40.10000,-8.01825,-3.46639
40.15000,-8.02678,-3.47501
40.20000,-8.03505,-3.47253
40.25000,-8.04331,-3.47917
40.30000,-8.05185,-3.47588
40.35000,-8.06011,-3.48669
40.40000,-8.06838,-3.47963
40.45000,-8.07665,-3.48990
40.50000,-8.08491,-3.48847
40.55000,-8.09345,-3.49096
40.60000,-8.10171,-3.49362
40.65000,-8.10985,-3.49560
40.70000,-8.11838,-3.49658
40.75000,-8.12665,-3.50103
40.80000,-8.13491,-3.50200
40.85000,-8.14318,-3.50556
40.90000,-8.15171,-3.50646
40.95000,-8.15998,-3.51077
41.00000,-8.16825,-3.51239
41.05000,-8.17678,-3.51684
41.10000,-8.18518,-3.51706
41.15000,-8.19318,-3.52057
41.20000,-8.20158,-3.52221
41.25000,-8.20998,-3.52666
41.30000,-8.21825,-3.52458
41.35000,-8.22638,-3.53995
41.40000,-8.23491,-3.52321
41.45000,-8.24318,-3.54609
41.50000,-8.25145,-3.53463
41.55000,-8.25985,-3.54622
41.60000,-8.26825,-3.54230
41.65000,-8.27678,-3.55373
41.70000,-8.28505,-3.54885
41.75000,-8.29331,-3.55827
41.80000,-8.30185,-3.55523
41.85000,-8.31011,-3.56642
41.90000,-8.31825,-3.55916
41.95000,-8.32678,-3.57418
42.00000,-8.33505,-3.56437
42.05000,-8.34318,-3.57978
42.10000,-8.35145,-3.57165
42.15000,-8.35998,-3.58403
42.20000,-8.36798,-3.57860
42.25000,-8.37638,-3.58866
42.30000,-8.38505,-3.58734
42.35000,-8.39331,-3.60020
42.40000,-8.40145,-3.58117
42.45000,-8.40998,-3.61022
42.50000,-8.41838,-3.60173
42.55000,-8.42651,-3.59587
42.60000,-8.43491,-3.61210
42.65000,-8.44331,-3.61398
42.70000,-8.45171,-3.60961
42.75000,-8.46011,-3.62076
42.80000,-8.46825,-3.61648
42.85000,-8.47678,-3.62999
42.90000,-8.48505,-3.61667
42.95000,-8.49305,-3.63935
43.00000,-8.50158,-3.62127
43.05000,-8.50998,-3.64427
43.10000,-8.51798,-3.63114
43.15000,-8.52651,-3.64505
43.20000,-8.53518,-3.64041
43.25000,-8.54331,-3.65264
43.30000,-8.55158,-3.64571
43.35000,-8.56011,-3.65812
43.40000,-8.56838,-3.64931
43.45000,-8.57665,-3.66695
43.50000,-8.58518,-3.65517
43.55000,-8.59345,-3.66850
43.60000,-8.60158,-3.66189
43.65000,-8.60998,-3.67490
43.70000,-8.61825,-3.66632
43.75000,-8.62665,-3.68048
43.80000,-8.63505,-3.67362
43.85000,-8.64318,-3.68537
43.90000,-8.65171,-3.67983
43.95000,-8.66011,-3.68807
44.00000,-8.66825,-3.69017
44.05000,-8.67651,-3.69162
44.10000,-8.68518,-3.69286
44.15000,-8.69331,-3.70035
44.20000,-8.70158,-3.69918
44.25000,-8.71011,-3.70222
44.30000,-8.71851,-3.70640
44.35000,-8.72651,-3.70905
44.40000,-8.73491,-3.70907
44.45000,-8.74331,-3.71336
44.50000,-8.75158,-3.71435
44.55000,-8.75971,-3.71853
44.60000,-8.76825,-3.71907
44.65000,-8.77651,-3.72199
44.70000,-8.78478,-3.72441
44.75000,-8.79318,-3.72678
44.80000,-8.80158,-3.73008
44.85000,-8.80998,-3.73287
44.90000,-8.81825,-3.73583
44.95000,-8.82651,-3.73799
45.00000,-8.83505,-3.74169
45.05000,-8.84331,-3.74234
45.10000,-8.85145,-3.74667
45.15000,-8.85998,-3.74956
45.20000,-8.86838,-3.75217
45.25000,-8.87651,-3.75326
45.30000,-8.88478,-3.75660
45.35000,-8.89331,-3.75870
45.40000,-8.90145,-3.76048
45.45000,-8.90971,-3.76382
45.50000,-8.91825,-3.76444
45.55000,-8.92651,-3.77048
45.60000,-8.93478,-3.76841
45.65000,-8.94331,-3.77547
45.70000,-8.95171,-3.77467
45.75000,-8.95998,-3.78058
45.80000,-8.96838,-3.77938
45.85000,-8.97678,-3.78429
45.90000,-8.98518,-3.78668
45.95000,-8.99344,-3.78760
46.00000,-9.00145,-3.78932
46.05000,-9.01011,-3.79092
46.10000,-9.01838,-3.79294
46.15000,-9.02638,-3.79638
46.20000,-9.03478,-3.79490
46.25000,-9.04331,-3.80069
46.30000,-9.05144,-3.80075
46.35000,-9.05984,-3.80235
46.40000,-9.06851,-3.80472
46.45000,-9.07664,-3.80765
46.50000,-9.08478,-3.80736
46.55000,-9.09344,-3.81055
46.60000,-9.10171,-3.81107
46.65000,-9.10998,-3.81363
46.70000,-9.11851,-3.81580
46.75000,-9.12678,-3.81644
46.80000,-9.13491,-3.81785
46.85000,-9.14331,-3.81932
46.90000,-9.15144,-3.82039
46.95000,-9.15998,-3.82178
47.00000,-9.16824,-3.82350
47.05000,-9.17638,-3.82680
47.10000,-9.18491,-3.82512
47.15000,-9.19344,-3.82854
47.20000,-9.20158,-3.82951
47.25000,-9.20984,-3.83186
47.30000,-9.21838,-3.82947
47.35000,-9.22664,-3.83490
47.40000,-9.23478,-3.83428
47.45000,-9.24331,-3.83461
47.50000,-9.25184,-3.83812
47.55000,-9.25998,-3.83972
47.60000,-9.26824,-3.83882
47.65000,-9.27678,-3.84283
47.70000,-9.28491,-3.84087
47.75000,-9.29318,-3.84490
47.80000,-9.30158,-3.84418
47.85000,-9.30984,-3.84756
47.90000,-9.31824,-3.84641
47.95000,-9.32664,-3.85101
48.00000,-9.33491,-3.84842
48.05000,-9.34331,-3.85308
48.10000,-9.35158,-3.85294
48.15000,-9.35984,-3.85512
48.20000,-9.36838,-3.85570
48.25000,-9.37664,-3.85915
48.30000,-9.38478,-3.85783
48.35000,-9.39344,-3.86148
48.40000,-9.40171,-3.86105
48.45000,-9.40971,-3.86561
48.50000,-9.41824,-3.86242
48.55000,-9.42678,-3.86847
48.60000,-9.43478,-3.86590
48.65000,-9.44304,-3.87118
48.70000,-9.45171,-3.86942
48.75000,-9.45984,-3.87476
48.80000,-9.46811,-3.87343
48.85000,-9.47664,-3.87620
48.90000,-9.48504,-3.87700
48.95000,-9.49331,-3.87857
49.00000,-9.50171,-3.87900
49.05000,-9.50984,-3.88094
49.10000,-9.51838,-3.88068
49.15000,-9.52664,-3.88340
49.20000,-9.53478,-3.88214
49.25000,-9.54344,-3.88482
49.30000,-9.55171,-3.88614
49.35000,-9.55971,-3.88708
49.40000,-9.56824,-3.88771
49.45000,-9.57664,-3.88848
49.50000,-9.58478,-3.89149
49.55000,-9.59318,-3.88981
49.60000,-9.60198,-3.89491
49.65000,-9.60998,-3.89483
49.70000,-9.61824,-3.89590
49.75000,-9.62691,-3.89646
49.80000,-9.63518,-3.89988
49.85000,-9.64331,-3.89986
49.90000,-9.65171,-3.90255
49.95000,-9.66011,-3.90324
50.00000,-9.66824,-3.90431
50.05000,-9.67664,-3.90736
50.10000,-9.68491,-3.90826
50.15000,-9.69331,-3.91012
50.20000,-9.70171,-3.91388
50.25000,-9.70984,-3.90889
50.30000,-9.71824,-3.92043
50.35000,-9.72664,-3.91407
50.40000,-9.73491,-3.92425
50.45000,-9.74318,-3.91724
50.50000,-9.75171,-3.92865
50.55000,-9.75998,-3.92428
50.60000,-9.76824,-3.93210
50.65000,-9.77678,-3.92876
50.70000,-9.78531,-3.93792
50.75000,-9.79331,-3.93309
50.80000,-9.80158,-3.94119
50.85000,-9.81011,-3.93811
50.90000,-9.81811,-3.94526
50.95000,-9.82638,-3.94266
51.00000,-9.83491,-3.94882
51.05000,-9.84318,-3.94740
51.10000,-9.85144,-3.95320
51.15000,-9.85984,-3.95232
51.20000,-9.86824,-3.95711
51.25000,-9.87664,-3.95710
51.30000,-9.88491,-3.96200
51.35000,-9.89318,-3.96148
51.40000,-9.90171,-3.96522
51.45000,-9.90998,-3.96754
51.50000,-9.91824,-3.96893
51.55000,-9.92678,-3.97033
51.60000,-9.93504,-3.97356
51.65000,-9.94304,-3.97250
51.70000,-9.95144,-3.97372
51.75000,-9.96011,-3.97444
51.80000,-9.96811,-3.97446
51.85000,-9.97638,-3.97450
51.90000,-9.98504,-3.97638
51.95000,-9.99331,-3.97740
52.00000,-10.00158,-3.97950
52.05000,-10.00998,-3.98056
52.10000,-10.01838,-3.98317
52.15000,-10.02664,-3.98446
52.20000,-10.03504,-3.98744
52.25000,-10.04331,-3.98881
52.30000,-10.05184,-3.99133
52.35000,-10.06011,-3.99287
52.40000,-10.06824,-3.99373
52.45000,-10.07678,-3.99668
52.50000,-10.08504,-3.99719
52.55000,-10.09304,-3.99977
52.60000,-10.10158,-4.00004
52.65000,-10.11011,-4.00304
52.70000,-10.11811,-4.00545
52.75000,-10.12651,-4.00604
52.80000,-10.13504,-4.00911
52.85000,-10.14331,-4.01117
52.90000,-10.15158,-4.01311
52.95000,-10.16011,-4.01413
53.00000,-10.16838,-4.01930
53.05000,-10.17664,-4.01846
53.10000,-10.18504,-4.02281
53.15000,-10.19331,-4.02346
53.20000,-10.20171,-4.02689
53.25000,-10.21011,-4.02856
53.30000,-10.21838,-4.03203
53.35000,-10.22677,-4.03300
53.40000,-10.23491,-4.03712
53.45000,-10.24304,-4.03792
53.50000,-10.25144,-4.04123
53.55000,-10.25997,-4.04424
53.60000,-10.26824,-4.04562
53.65000,-10.27664,-4.05136
53.70000,-10.28531,-4.04993
53.75000,-10.29344,-4.05749
53.80000,-10.30158,-4.05561
53.85000,-10.31011,-4.05928
53.90000,-10.31851,-4.06160
53.95000,-10.32651,-4.06529
54.00000,-10.33491,-4.06610
54.05000,-10.34331,-4.06942
54.10000,-10.35144,-4.07156
54.15000,-10.35971,-4.07483
54.20000,-10.36811,-4.07541
54.25000,-10.37638,-4.08057
54.30000,-10.38464,-4.08083
54.35000,-10.39317,-4.08472
54.40000,-10.40157,-4.08642
54.45000,-10.40997,-4.08831
54.50000,-10.41824,-4.09154
54.55000,-10.42638,-4.08977
54.60000,-10.43517,-4.09389
54.65000,-10.44344,-4.09379
54.70000,-10.45157,-4.09647
54.75000,-10.46011,-4.09613
54.80000,-10.46851,-4.09998
54.85000,-10.47651,-4.09917
54.90000,-10.48491,-4.10267
54.95000,-10.49331,-4.10173
55.00000,-10.50144,-4.10639
55.05000,-10.50971,-4.10479
55.10000,-10.51824,-4.10911
55.15000,-10.52651,-4.11053
55.20000,-10.53477,-4.11272
55.25000,-10.54331,-4.11406
55.30000,-10.55171,-4.11620
55.35000,-10.55997,-4.11780
55.40000,-10.56824,-4.12169
55.45000,-10.57637,-4.11992
55.50000,-10.58504,-4.12535
55.55000,-10.59331,-4.12481
55.60000,-10.60131,-4.12953
55.65000,-10.60997,-4.12798
55.70000,-10.61837,-4.13378
55.75000,-10.62637,-4.13355
55.80000,-10.63491,-4.13642
55.85000,-10.64331,-4.13774
55.90000,-10.65144,-4.14070
55.95000,-10.65984,-4.14080
56.00000,-10.66851,-4.14616
56.05000,-10.67664,-4.14588
56.10000,-10.68491,-4.14992
56.15000,-10.69344,-4.15115
56.20000,-10.70184,-4.15523
56.25000,-10.70997,-4.15590
56.30000,-10.71837,-4.15965
56.35000,-10.72677,-4.16209
56.40000,-10.73504,-4.16380
56.45000,-10.74331,-4.16644
56.50000,-10.75157,-4.16732
56.55000,-10.75997,-4.17376
56.60000,-10.76824,-4.16881
56.65000,-10.77637,-4.18272
56.70000,-10.78491,-4.17248
56.75000,-10.79331,-4.18793
56.80000,-10.80157,-4.18097
56.85000,-10.80984,-4.19296
56.90000,-10.81851,-4.18785
56.95000,-10.82677,-4.19959
57.00000,-10.83491,-4.19539
57.05000,-10.84331,-4.20281
57.10000,-10.85184,-4.20487
57.15000,-10.85984,-4.20303
57.20000,-10.86811,-4.21626
57.25000,-10.87664,-4.20766
57.30000,-10.88477,-4.22187
57.35000,-10.89304,-4.21251
57.40000,-10.90157,-4.23039
57.45000,-10.90984,-4.22043
57.50000,-10.91811,-4.23632
57.55000,-10.92664,-4.22662
57.60000,-10.93491,-4.24386
57.65000,-10.94331,-4.23282
57.70000,-10.95171,-4.25180
57.75000,-10.95997,-4.23909
57.80000,-10.96837,-4.25644
57.85000,-10.97664,-4.24730
57.90000,-10.98477,-4.26167
57.95000,-10.99331,-4.25292
58.00000,-11.00157,-4.26831
58.05000,-11.00971,-4.26126
58.10000,-11.01824,-4.27300
58.15000,-11.02677,-4.26941
58.20000,-11.03477,-4.27879
58.25000,-11.04317,-4.27530
58.30000,-11.05171,-4.28358
58.35000,-11.05984,-4.28115
58.40000,-11.06811,-4.29007
58.45000,-11.07664,-4.28700
58.50000,-11.08504,-4.29573
58.55000,-11.09331,-4.29403
58.60000,-11.10171,-4.30280
58.65000,-11.10984,-4.30025
58.70000,-11.11851,-4.30707
58.75000,-11.12677,-4.30838
58.80000,-11.13477,-4.31165
58.85000,-11.14344,-4.31298
58.90000,-11.15171,-4.31645
58.95000,-11.15971,-4.31971
59.00000,-11.16811,-4.31932
59.05000,-11.17664,-4.32607
59.10000,-11.18464,-4.32534
59.15000,-11.19291,-4.33072
59.20000,-11.20171,-4.33151
59.25000,-11.20984,-4.33674
59.30000,-11.21811,-4.33607
59.35000,-11.22664,-4.34170
59.40000,-11.23504,-4.34141
59.45000,-11.24331,-4.34603
59.50000,-11.25171,-4.34605
59.55000,-11.26011,-4.35194
59.60000,-11.26837,-4.35007
59.65000,-11.27664,-4.35543
59.70000,-11.28491,-4.35554
59.75000,-11.29331,-4.35884
59.80000,-11.30171,-4.36100
59.85000,-11.30984,-4.36297
59.90000,-11.31837,-4.36456
59.95000,-11.32677,-4.36963
60.00000,-11.33504,-4.37102
60.05000,-11.34331,-4.37283
60.10000,-11.35184,-4.37672
60.15000,-11.36011,-4.37752
60.20000,-11.36837,-4.38237
60.25000,-11.37677,-4.38067
60.30000,-11.38531,-4.38833
60.35000,-11.39317,-4.38613
60.40000,-11.40157,-4.39095
60.45000,-11.41011,-4.39220
60.50000,-11.41824,-4.39530
60.55000,-11.42651,-4.39758
60.60000,-11.43491,-4.40075
60.65000,-11.44331,-4.40260
60.70000,-11.45144,-4.40585
60.75000,-11.45984,-4.40726
60.80000,-11.46824,-4.41225
60.85000,-11.47677,-4.41394
60.90000,-11.48504,-4.42011
60.95000,-11.49331,-4.41949
61.00000,-11.50184,-4.42271
61.05000,-11.51010,-4.42684
61.10000,-11.51824,-4.42803
61.15000,-11.52677,-4.43108
61.20000,-11.53504,-4.43505
61.25000,-11.54317,-4.43707
61.30000,-11.55157,-4.43955
61.35000,-11.55997,-4.44170
61.40000,-11.56810,-4.44703
61.45000,-11.57637,-4.44547
61.50000,-11.58504,-4.45126
61.55000,-11.59331,-4.45504
61.60000,-11.60157,-4.45704
61.65000,-11.61010,-4.46091
61.70000,-11.61837,-4.46431
61.75000,-11.62677,-4.46584
61.80000,-11.63504,-4.46996
61.85000,-11.64331,-4.47201
61.90000,-11.65184,-4.47533
61.95000,-11.66010,-4.47721
62.00000,-11.66810,-4.48115
62.05000,-11.67677,-4.48237
62.10000,-11.68504,-4.48540
62.15000,-11.69304,-4.48887
62.20000,-11.70157,-4.49079
62.25000,-11.70997,-4.49419
62.30000,-11.71810,-4.49778
62.35000,-11.72651,-4.50000
62.40000,-11.73504,-4.50282
62.45000,-11.74317,-4.50667
62.50000,-11.75144,-4.50903
62.55000,-11.76010,-4.51106
62.60000,-11.76850,-4.51762
62.65000,-11.77677,-4.51642
62.70000,-11.78517,-4.52137
62.75000,-11.79344,-4.52298
62.80000,-11.80170,-4.52528
62.85000,-11.80997,-4.52734
62.90000,-11.81837,-4.53112
62.95000,-11.82677,-4.53212
63.00000,-11.83504,-4.53577
63.05000,-11.84317,-4.53735
63.10000,-11.85157,-4.54164
63.15000,-11.86010,-4.54309
63.20000,-11.86824,-4.54681
63.25000,-11.87664,-4.54878
63.30000,-11.88504,-4.55076
63.35000,-11.89330,-4.55463
63.40000,-11.90144,-4.55636
63.45000,-11.90997,-4.55849
63.50000,-11.91850,-4.56354
63.55000,-11.92650,-4.56472
63.60000,-11.93490,-4.56769
63.65000,-11.94330,-4.56876
63.70000,-11.95130,-4.57452
63.75000,-11.95957,-4.57219
63.80000,-11.96797,-4.57795
63.85000,-11.97650,-4.57974
63.90000,-11.98477,-4.58215
63.95000,-11.99317,-4.58405
64.00000,-12.00157,-4.58608
64.05000,-12.01010,-4.58965
64.10001,-12.01837,-4.59231
64.15000,-12.02664,-4.59290
64.20000,-12.03517,-4.59604
64.25000,-12.04344,-4.60036
64.30000,-12.05157,-4.60075
64.35001,-12.06010,-4.60070
64.40000,-12.06850,-4.60734
64.45000,-12.07650,-4.60654
64.50000,-12.08490,-4.60658
64.55000,-12.09344,-4.61150
64.60001,-12.10144,-4.61222
64.65000,-12.10970,-4.61496
64.70000,-12.11837,-4.61652
64.75000,-12.12664,-4.61779
64.80000,-12.13477,-4.62320
64.85001,-12.14330,-4.62111
64.90000,-12.15170,-4.62908
64.95000,-12.16010,-4.62672
65.00000,-12.16837,-4.63442
65.05000,-12.17664,-4.63160
65.10001,-12.18504,-4.63607
65.15000,-12.19344,-4.63644
65.20000,-12.20157,-4.64075
65.25000,-12.21010,-4.63855
65.30000,-12.21837,-4.64729
65.35001,-12.22637,-4.64094
65.40000,-12.23490,-4.65219
65.45000,-12.24330,-4.64720
65.50000,-12.25144,-4.65346
65.55000,-12.25984,-4.65337
65.60001,-12.26864,-4.65840
65.65000,-12.27677,-4.66125
65.70001,-12.28504,-4.66094
65.75000,-12.29370,-4.66687
65.80000,-12.30184,-4.66778
65.85001,-12.31010,-4.66750
65.90000,-12.31850,-4.66926
65.95001,-12.32677,-4.67568
66.00000,-12.33490,-4.66941
66.05000,-12.34330,-4.67964
66.10001,-12.35157,-4.67359
66.15000,-12.36010,-4.68262
66.20001,-12.36824,-4.67957
66.25000,-12.37637,-4.68565
66.30000,-12.38490,-4.68445
66.35001,-12.39330,-4.68632
66.40000,-12.40144,-4.69177
66.45001,-12.40984,-4.69120
66.50000,-12.41837,-4.69338
66.55000,-12.42664,-4.69924
66.60001,-12.43477,-4.69652
66.65000,-12.44330,-4.70054
66.70001,-12.45184,-4.70674
66.75000,-12.45997,-4.69860
66.80000,-12.46824,-4.71716
66.85001,-12.47677,-4.69364
66.90000,-12.48504,-4.72298
66.95001,-12.49317,-4.69991
67.00000,-12.50157,-4.71961
67.05000,-12.50984,-4.70457
67.10001,-12.51810,-4.72194
67.15000,-12.52650,-4.70994
67.20001,-12.53490,-4.72699
67.25000,-12.54317,-4.71038
67.30000,-12.55144,-4.73547
67.35001,-12.55970,-4.71306
67.40000,-12.56837,-4.73559
67.45001,-12.57664,-4.72621
67.50000,-12.58477,-4.73562
67.55000,-12.59330,-4.73003
67.60001,-12.60184,-4.74271
67.65000,-12.60984,-4.73592
67.70001,-12.61824,-4.74689
67.75000,-12.62677,-4.73859
67.80000,-12.63477,-4.75393
67.85001,-12.64317,-4.73898
67.90000,-12.65170,-4.75791
67.95001,-12.65997,-4.74827
68.00000,-12.66824,-4.75810
68.05000,-12.67677,-4.75323
68.10001,-12.68504,-4.76168
68.15000,-12.69330,-4.75659
68.20001,-12.70170,-4.76882
68.25000,-12.70984,-4.75439
68.30000,-12.71837,-4.78004
68.35001,-12.72677,-4.75549
68.40000,-12.73477,-4.78293
68.45001,-12.74344,-4.76372
68.50000,-12.75184,-4.78197
68.55000,-12.75984,-4.77093
68.60001,-12.76824,-4.78362
68.65000,-12.77650,-4.77341
68.70001,-12.78464,-4.79040
68.75000,-12.79304,-4.77570
68.80000,-12.80184,-4.79375
68.85001,-12.80997,-4.78482
68.90000,-12.81823,-4.79335
68.95001,-12.82677,-4.79036
69.00000,-12.83504,-4.79625
69.05000,-12.84330,-4.79399
69.10001,-12.85170,-4.79777
69.15000,-12.86010,-4.80199
69.20001,-12.86837,-4.79532
69.25000,-12.87664,-4.80933
69.30000,-12.88490,-4.79879
69.35001,-12.89330,-4.80904
69.40000,-12.90157,-4.80476
69.45001,-12.90970,-4.81128
69.50000,-12.91823,-4.80549
69.55000,-12.92664,-4.81977
69.60001,-12.93490,-4.81016
69.65000,-12.94317,-4.82281
69.70001,-12.95184,-4.80943
69.75000,-12.96010,-4.82832
69.80000,-12.96823,-4.81360
69.85001,-12.97677,-4.82577
69.90000,-12.98503,-4.81975
69.95001,-12.99317,-4.82617
70.00000,-13.00157,-4.82336
70.05000,-13.00997,-4.82720
70.10001,-13.01810,-4.82766
70.15000,-13.02637,-4.83035
70.20001,-13.03490,-4.83171
70.25000,-13.04303,-4.83287
70.30000,-13.05130,-4.83537
70.35001,-13.05970,-4.83700
70.40000,-13.06810,-4.83721
70.45001,-13.07664,-4.84136
70.50000,-13.08490,-4.84378
70.55000,-13.09330,-4.84667
70.60001,-13.10183,-4.84758
70.65000,-13.11010,-4.85322
70.70001,-13.11810,-4.85135
70.75000,-13.12677,-4.85682
70.80000,-13.13503,-4.85752
70.85001,-13.14317,-4.86170
70.90000,-13.15157,-4.86211
70.95001,-13.15997,-4.86589
71.00000,-13.16797,-4.86871
71.05000,-13.17637,-4.87030
71.10001,-13.18503,-4.87451
71.15000,-13.19330,-4.87930
71.20001,-13.20157,-4.88099
71.25000,-13.20997,-4.88519
71.30000,-13.21837,-4.88843
71.35001,-13.22663,-4.89253
71.40000,-13.23517,-4.89597
71.45001,-13.24330,-4.90124
71.50000,-13.25183,-4.90289
71.55000,-13.26010,-4.90921
71.60001,-13.26823,-4.90955
71.65000,-13.27663,-4.91624
71.70001,-13.28503,-4.91787
71.75000,-13.29303,-4.92350
71.80000,-13.30143,-4.92431
71.85001,-13.31010,-4.93218
71.90000,-13.31810,-4.93398
71.95001,-13.32650,-4.93952
72.00000,-13.33517,-4.94325
72.05000,-13.34330,-4.94883
72.10001,-13.35157,-4.95106
72.15000,-13.36010,-4.95798
72.20001,-13.36837,-4.96089
72.25000,-13.37663,-4.96538
72.30000,-13.38503,-4.96917
72.35001,-13.39343,-4.97402
72.40000,-13.40157,-4.97832
72.45001,-13.40997,-4.98127
72.50000,-13.41823,-4.98734
72.55000,-13.42663,-4.98865
72.60001,-13.43503,-4.99588
72.65000,-13.44317,-4.99763
72.70001,-13.45170,-5.00204
72.75000,-13.46010,-5.00646
72.80000,-13.46823,-5.01182
72.85001,-13.47650,-5.01370
72.90000,-13.48517,-5.01882
72.95001,-13.49343,-5.02347
73.00000,-13.50157,-5.02498
73.05000,-13.50997,-5.02881
73.10001,-13.51837,-5.03270
73.15000,-13.52663,-5.03564
73.20001,-13.53490,-5.03923
73.25000,-13.54343,-5.04344
73.30000,-13.55143,-5.04429
73.35001,-13.55970,-5.04981
73.40000,-13.56823,-5.05199
73.45001,-13.57650,-5.05681
73.50000,-13.58477,-5.05942
73.55000,-13.59303,-5.06474
73.60001,-13.60157,-5.06652
73.65000,-13.60997,-5.07326
73.70001,-13.61823,-5.07679
73.75000,-13.62663,-5.07936
73.80000,-13.63517,-5.08471
73.85001,-13.64343,-5.08917
73.90000,-13.65157,-5.09076
73.95001,-13.65997,-5.09416
74.00000,-13.66823,-5.09893
74.05000,-13.67623,-5.10106
74.10001,-13.68477,-5.10283
74.15000,-13.69330,-5.10962
74.20001,-13.70143,-5.10958
74.25000,-13.70970,-5.11554
74.30000,-13.71810,-5.11683
74.35001,-13.72637,-5.12118
74.40000,-13.73477,-5.12408
74.45001,-13.74343,-5.12938
74.50000,-13.75183,-5.13292
74.55000,-13.76010,-5.13747
74.60001,-13.76850,-5.13946
74.65000,-13.77677,-5.14334
74.70001,-13.78517,-5.14479
74.75000,-13.79357,-5.15026
74.80000,-13.80157,-5.15035
74.85001,-13.81010,-5.15441
74.90000,-13.81837,-5.15741
74.95001,-13.82637,-5.16034
75.00000,-13.83490,-5.16273
75.05000,-13.84330,-5.16674
75.10001,-13.85143,-5.16994
75.15000,-13.85983,-5.17277
75.20001,-13.86850,-5.17657
75.25000,-13.87663,-5.18077
75.30000,-13.88490,-5.18128
75.35001,-13.89357,-5.18688
75.40000,-13.90183,-5.18865
75.45001,-13.90997,-5.19225
75.50000,-13.91850,-5.19371
75.55000,-13.92690,-5.19880
75.60001,-13.93503,-5.19913
75.65000,-13.94330,-5.20282
75.70001,-13.95157,-5.20502
75.75000,-13.95997,-5.20709
75.80000,-13.96823,-5.20950
75.85001,-13.97637,-5.21291
75.90000,-13.98490,-5.21349
75.95001,-13.99330,-5.21702
76.00000,-14.00157,-5.22012
76.05000,-14.00983,-5.22142
76.10001,-14.01837,-5.22366
76.15000,-14.02677,-5.22867
76.20001,-14.03477,-5.22779
76.25000,-14.04330,-5.23220
76.30000,-14.05170,-5.23327
76.35001,-14.05983,-5.23620
76.40000,-14.06823,-5.23701
76.45001,-14.07677,-5.24179
76.50000,-14.08490,-5.24122
76.55000,-14.09317,-5.24530
76.60001,-14.10157,-5.24580
76.65000,-14.10983,-5.24982
76.70001,-14.11810,-5.24975
76.75000,-14.12650,-5.25710
76.80000,-14.13490,-5.25571
76.85001,-14.14330,-5.26274
76.90000,-14.15157,-5.26201
76.95001,-14.15983,-5.26812
77.00000,-14.16837,-5.26630
77.05000,-14.17663,-5.27216
77.10001,-14.18477,-5.27005
77.15000,-14.19343,-5.27490
77.20001,-14.20170,-5.27615
77.25000,-14.20983,-5.27883
77.30000,-14.21823,-5.27813
77.35001,-14.22663,-5.28075
77.40000,-14.23477,-5.28383
77.45001,-14.24303,-5.28205
77.50000,-14.25170,-5.28934
77.55000,-14.25997,-5.28541
77.60001,-14.26823,-5.29963
77.65000,-14.27663,-5.28808
77.70001,-14.28503,-5.30513
77.75000,-14.29330,-5.29457
77.80000,-14.30170,-5.30768
77.85001,-14.30997,-5.30039
77.90000,-14.31836,-5.31272
77.95001,-14.32677,-5.30439
78.00000,-14.33477,-5.31674
78.05000,-14.34343,-5.30953
78.10001,-14.35170,-5.31968
78.15000,-14.35983,-5.31632
78.20001,-14.36823,-5.32367
78.25000,-14.37663,-5.31952
78.30000,-14.38463,-5.32981
78.35001,-14.39303,-5.32365
78.40000,-14.40170,-5.33291
78.45001,-14.40996,-5.33266
78.50000,-14.41823,-5.33952
78.55000,-14.42690,-5.33825
78.60001,-14.43516,-5.34595
78.65000,-14.44330,-5.34357
78.70001,-14.45183,-5.34834
78.75000,-14.46010,-5.34899
78.80000,-14.46836,-5.35221
78.85001,-14.47663,-5.35222
78.90000,-14.48490,-5.35727
78.95001,-14.49330,-5.35615
79.00000,-14.50156,-5.36269
79.05000,-14.50970,-5.35737
79.10001,-14.51836,-5.37131
79.15000,-14.52663,-5.35903
79.20001,-14.53476,-5.37872
79.25000,-14.54316,-5.36543
79.30000,-14.55183,-5.38009
79.35001,-14.55996,-5.37461
79.40000,-14.56823,-5.38622
79.45001,-14.57676,-5.37828
79.50000,-14.58516,-5.39296
79.55000,-14.59330,-5.38792
79.60001,-14.60156,-5.39472
79.65000,-14.61010,-5.39485
79.70001,-14.61810,-5.40137
79.75000,-14.62636,-5.39915
79.80000,-14.63490,-5.40759
79.85001,-14.64316,-5.40599
79.90000,-14.65143,-5.41159
79.95001,-14.65983,-5.41351
80.00000,-14.66823,-5.41748
80.05000,-14.67663,-5.41943
80.10001,-14.68503,-5.42415
80.15000,-14.69330,-5.42626
80.20001,-14.70183,-5.42943
80.25000,-14.70996,-5.43272
80.30000,-14.71810,-5.43645
80.35001,-14.72676,-5.43738
80.40000,-14.73516,-5.44697
80.45001,-14.74303,-5.44371
80.50001,-14.75156,-5.45182
80.55000,-14.76010,-5.45059
80.60001,-14.76810,-5.45781
80.65000,-14.77636,-5.45857
80.70001,-14.78503,-5.46205
80.75001,-14.79316,-5.46545
80.80000,-14.80143,-5.46917
80.85001,-14.80996,-5.47178
80.90000,-14.81823,-5.47557
80.95001,-14.82650,-5.47827
81.00001,-14.83490,-5.48379
81.05000,-14.84330,-5.48769
81.10001,-14.85170,-5.48908
81.15000,-14.86010,-5.49694
81.20001,-14.86810,-5.49801
81.25001,-14.87676,-5.50284
81.30000,-14.88503,-5.50470
81.35001,-14.89316,-5.51242
81.40000,-14.90156,-5.51073
81.45001,-14.90996,-5.51763
81.50001,-14.91796,-5.52048
81.55000,-14.92650,-5.52400
81.60001,-14.93516,-5.52771
81.65000,-14.94343,-5.53589
81.70001,-14.95170,-5.53450
81.75001,-14.96023,-5.54142
81.80000,-14.96850,-5.54288
81.85001,-14.97676,-5.54834
81.90000,-14.98516,-5.54847
81.95001,-14.99343,-5.55628
82.00001,-15.00170,-5.55451
82.05000,-15.00996,-5.56253
82.10001,-15.01823,-5.56283
82.15000,-15.02663,-5.56803
82.20001,-15.03490,-5.57047
82.25001,-15.04303,-5.57956
82.30000,-15.05143,-5.57394
82.35001,-15.05996,-5.58823
82.40000,-15.06823,-5.58729
82.45001,-15.07650,-5.59268
82.50001,-15.08516,-5.59675
82.55000,-15.09343,-5.60196
82.60001,-15.10156,-5.60539
82.65000,-15.11010,-5.60692
82.70001,-15.11850,-5.61343
82.75001,-15.12663,-5.61441
82.80000,-15.13490,-5.61671
82.85001,-15.14330,-5.62314
82.90000,-15.15143,-5.62266
82.95001,-15.15970,-5.62935
83.00001,-15.16810,-5.63087
83.05000,-15.17636,-5.63873
83.10001,-15.18476,-5.63727
83.15000,-15.19316,-5.64794
83.20001,-15.20156,-5.64734
83.25001,-15.21010,-5.65546
83.30000,-15.21823,-5.65835
83.35001,-15.22663,-5.66137
83.40000,-15.23516,-5.66785
83.45001,-15.24343,-5.66979
83.50001,-15.25156,-5.67722
83.55000,-15.26010,-5.67441
83.60001,-15.26850,-5.68994
83.65000,-15.27650,-5.68230
83.70001,-15.28490,-5.69390
83.75001,-15.29343,-5.69170
83.80000,-15.30143,-5.70383
83.85001,-15.30970,-5.69947
83.90000,-15.31836,-5.71356
83.95001,-15.32650,-5.71136
84.00001,-15.33476,-5.72293
84.05000,-15.34330,-5.72082
84.10001,-15.35170,-5.73470
84.15000,-15.35996,-5.73114
84.20001,-15.36836,-5.74369
84.25001,-15.37663,-5.74230
84.30000,-15.38503,-5.75274
84.35001,-15.39343,-5.75398
84.40000,-15.40156,-5.76214
84.45001,-15.41010,-5.76158
84.50001,-15.41836,-5.77122
84.55000,-15.42636,-5.77305
84.60001,-15.43476,-5.77748
84.65000,-15.44330,-5.78417
84.70001,-15.45143,-5.78939
84.75001,-15.45983,-5.79633
84.80000,-15.46850,-5.80186
84.85001,-15.47663,-5.80992
84.90000,-15.48490,-5.81258
84.95001,-15.49343,-5.82057
85.00001,-15.50170,-5.82482
85.05000,-15.50996,-5.83277
85.10001,-15.51836,-5.83559
85.15000,-15.52676,-5.84635
85.20001,-15.53516,-5.84561
85.25001,-15.54330,-5.85652
85.30000,-15.55143,-5.85776
85.35001,-15.55996,-5.86489
85.40000,-15.56823,-5.87181
85.45001,-15.57636,-5.87804
85.50001,-15.58490,-5.87978
85.55000,-15.59329,-5.89287
85.60001,-15.60156,-5.89375
85.65000,-15.60983,-5.90221
85.70001,-15.61849,-5.90702
85.75001,-15.62676,-5.91627
85.80000,-15.63490,-5.91968
85.85001,-15.64329,-5.92586
85.90000,-15.65183,-5.93242
85.95001,-15.65996,-5.94013
86.00001,-15.66823,-5.94342
86.05000,-15.67676,-5.94987
86.10001,-15.68490,-5.95888
86.15000,-15.69303,-5.96268
86.20001,-15.70156,-5.96860
86.25001,-15.70983,-5.97549
86.30000,-15.71796,-5.97879
86.35001,-15.72636,-5.98940
86.40000,-15.73490,-5.99179
86.45001,-15.74343,-6.00334
86.50001,-15.75170,-6.00779
86.55000,-15.75983,-6.01367
86.60001,-15.76849,-6.01710
86.65000,-15.77676,-6.02550
86.70001,-15.78476,-6.02983
86.75001,-15.79330,-6.03571
86.80000,-15.80169,-6.04085
86.85001,-15.80983,-6.04984
86.90000,-15.81823,-6.05114
86.95001,-15.82676,-6.06153
87.00001,-15.83476,-6.06469
87.05000,-15.84303,-6.06954
87.10001,-15.85156,-6.08006
87.15000,-15.85996,-6.08022
87.20001,-15.86823,-6.09297
87.25001,-15.87663,-6.09487
87.30000,-15.88503,-6.10688
87.35001,-15.89343,-6.10539
87.40000,-15.90183,-6.12195
87.45001,-15.90996,-6.11863
87.50001,-15.91850,-6.13312
87.55000,-15.92676,-6.13106
87.60001,-15.93490,-6.14585
87.65000,-15.94343,-6.14382
87.70001,-15.95183,-6.15627
87.75001,-15.95969,-6.15916
87.80000,-15.96810,-6.16593
87.85001,-15.97663,-6.17047
87.90000,-15.98463,-6.18183
87.95001,-15.99316,-6.18395
88.00001,-16.00183,-6.19393
88.05000,-16.00996,-6.20238
88.10001,-16.01823,-6.20770
88.15000,-16.02676,-6.21550
88.20001,-16.03503,-6.22018
88.25001,-16.04329,-6.23216
88.30000,-16.05169,-6.23234
88.35001,-16.06010,-6.24455
88.40000,-16.06836,-6.25072
88.45001,-16.07663,-6.25578
88.50001,-16.08489,-6.26459
88.55000,-16.09343,-6.26841
88.60001,-16.10169,-6.28034
88.65000,-16.10983,-6.28248
88.70001,-16.11823,-6.28943
88.75001,-16.12663,-6.29981
88.80000,-16.13489,-6.30640
88.85001,-16.14316,-6.31097
88.90000,-16.15183,-6.32201
88.95001,-16.16010,-6.32749
89.00001,-16.16823,-6.33499
89.05000,-16.17676,-6.34229
89.10001,-16.18516,-6.35139
89.15000,-16.19329,-6.35635
89.20001,-16.20156,-6.36219
89.25001,-16.20996,-6.37280
89.30000,-16.21809,-6.37586
89.35001,-16.22636,-6.38542
89.40000,-16.23489,-6.39247
89.45001,-16.24316,-6.39884
89.50001,-16.25143,-6.40641
89.55000,-16.25983,-6.41408
89.60001,-16.26823,-6.42049
89.65000,-16.27676,-6.42934
89.70001,-16.28503,-6.43797
89.75001,-16.29329,-6.44429
89.80000,-16.30183,-6.45410
89.85001,-16.31009,-6.45764
89.90000,-16.31823,-6.47285
89.95001,-16.32663,-6.46726
90.00001,-16.33503,-6.48880
90.05000,-16.34303,-6.48486
90.10001,-16.35143,-6.49915
90.15000,-16.35996,-6.50045
90.20001,-16.36809,-6.51336
90.25001,-16.37636,-6.51856
90.29201,-16.38356,-6.52052
