Time,Extension,Load
(sec),(mm),(N)
0.00000,-0.00027,-0.00260
0.05000,-0.00173,0.00224
0.10000,-0.00693,-0.00520
0.15000,-0.01587,0.00386
0.20000,-0.02640,-0.01289
0.25000,-0.03680,0.00509
0.30000,-0.04627,-0.01582
0.35000,-0.05560,-0.00284
0.40000,-0.06480,-0.01462
0.45000,-0.07373,-0.00811
0.50000,-0.08227,-0.01551
0.55000,-0.09093,-0.01034
0.60000,-0.09960,-0.01879
0.65000,-0.10800,-0.01131
0.70000,-0.11640,-0.02313
0.75000,-0.12507,-0.01247
0.80000,-0.13347,-0.02867
0.85000,-0.14160,-0.01117
0.90000,-0.15027,-0.03015
0.95000,-0.15880,-0.01793
1.00000,-0.16693,-0.02834
1.05000,-0.17533,-0.02267
1.10000,-0.18400,-0.02787
1.15000,-0.19200,-0.02802
1.20000,-0.20027,-0.03103
1.25000,-0.20880,-0.02918
1.30000,-0.21693,-0.03699
1.35000,-0.22520,-0.03078
1.40000,-0.23360,-0.04013
1.45000,-0.24187,-0.03798
1.50000,-0.25013,-0.03905
1.55000,-0.25840,-0.04314
1.60000,-0.26680,-0.04032
1.65000,-0.27547,-0.05021
1.70000,-0.28387,-0.04252
1.75000,-0.29200,-0.05596
1.80000,-0.30053,-0.04497
1.85000,-0.30880,-0.05725
1.90000,-0.31693,-0.05145
1.95000,-0.32533,-0.05959
2.00000,-0.33387,-0.06164
2.05000,-0.34187,-0.05706
2.10000,-0.35013,-0.06616
2.15000,-0.35880,-0.06313
2.20000,-0.36693,-0.06683
2.25000,-0.37507,-0.06881
2.30000,-0.38360,-0.07392
2.35000,-0.39213,-0.07106
2.40000,-0.40027,-0.07966
2.45000,-0.40880,-0.07721
2.50000,-0.41720,-0.08044
2.55000,-0.42547,-0.08167
2.60000,-0.43373,-0.08516
2.65000,-0.44213,-0.08656
2.70000,-0.45053,-0.08778
2.75000,-0.45880,-0.08999
2.80000,-0.46707,-0.09204
2.85000,-0.47547,-0.09408
2.90000,-0.48373,-0.09346
2.95000,-0.49200,-0.10116
3.00000,-0.50027,-0.09653
3.05000,-0.50880,-0.10570
3.10000,-0.51707,-0.10024
3.15000,-0.52520,-0.10638
3.20000,-0.53373,-0.10636
3.25000,-0.54227,-0.11056
3.30000,-0.55040,-0.10969
3.35000,-0.55880,-0.11634
3.40000,-0.56733,-0.11229
3.45000,-0.57547,-0.11985
3.50000,-0.58373,-0.11957
3.55000,-0.59213,-0.12156
3.60000,-0.60040,-0.12672
3.65000,-0.60867,-0.12772
3.70000,-0.61707,-0.12919
3.75000,-0.62547,-0.13664
3.80000,-0.63373,-0.13672
3.85000,-0.64200,-0.13806
3.90000,-0.65027,-0.14446
3.95000,-0.65880,-0.14441
4.00000,-0.66707,-0.14983
4.05000,-0.67533,-0.14875
4.10000,-0.68386,-0.15728
4.15000,-0.69226,-0.15376
4.20000,-0.70026,-0.16563
4.25000,-0.70880,-0.15898
4.30000,-0.71733,-0.17081
4.35000,-0.72533,-0.16978
4.40000,-0.73360,-0.17293
4.45000,-0.74200,-0.17429
4.50000,-0.75026,-0.18380
4.55000,-0.75853,-0.18026
4.60000,-0.76680,-0.18954
4.65000,-0.77520,-0.19091
4.70000,-0.78346,-0.18992
4.75000,-0.79186,-0.20113
4.80000,-0.80013,-0.19540
4.85000,-0.80880,-0.20732
4.90000,-0.81706,-0.20809
4.95000,-0.82533,-0.20953
5.00000,-0.83373,-0.21398
5.05000,-0.84226,-0.22406
5.10000,-0.85026,-0.21520
5.15000,-0.85866,-0.22960
5.20000,-0.86720,-0.22890
5.25000,-0.87520,-0.23271
5.30000,-0.88333,-0.23695
5.35000,-0.89213,-0.24265
5.40000,-0.90026,-0.24093
5.45000,-0.90840,-0.25015
5.50000,-0.91693,-0.25126
5.55000,-0.92533,-0.25656
5.60000,-0.93360,-0.25950
5.65000,-0.94200,-0.26466
5.70000,-0.95053,-0.26685
5.75000,-0.95880,-0.27515
5.80000,-0.96720,-0.27418
5.85000,-0.97546,-0.28257
5.90000,-0.98386,-0.28601
5.95000,-0.99226,-0.28709
6.00000,-1.00053,-0.29725
6.05000,-1.00880,-0.29689
6.10000,-1.01720,-0.30236
6.15000,-1.02533,-0.30892
6.20000,-1.03360,-0.31189
6.25000,-1.04213,-0.31533
6.30000,-1.05040,-0.32152
6.35000,-1.05866,-0.32546
6.40000,-1.06720,-0.32955
6.45000,-1.07560,-0.33451
6.50000,-1.08360,-0.33914
6.55000,-1.09200,-0.34341
6.60000,-1.10053,-0.34702
6.65000,-1.10866,-0.35136
6.70000,-1.11693,-0.35704
6.75000,-1.12546,-0.36015
6.80000,-1.13373,-0.36363
6.85000,-1.14200,-0.36860
6.90000,-1.15040,-0.37275
6.95000,-1.15866,-0.37479
7.00000,-1.16693,-0.38269
7.05000,-1.17520,-0.38212
7.10000,-1.18346,-0.38969
7.15000,-1.19200,-0.39285
7.20000,-1.20026,-0.39944
7.25000,-1.20853,-0.40018
7.30000,-1.21720,-0.40704
7.35000,-1.22560,-0.41045
7.40000,-1.23360,-0.41735
7.45000,-1.24200,-0.41690
7.50000,-1.25053,-0.42606
7.55000,-1.25853,-0.42636
7.60000,-1.26693,-0.43393
7.65000,-1.27546,-0.43482
7.70000,-1.28360,-0.44268
7.75000,-1.29200,-0.44115
7.80000,-1.30026,-0.45126
7.85000,-1.30853,-0.45347
7.90000,-1.31680,-0.45492
7.95000,-1.32533,-0.46238
8.00000,-1.33360,-0.46810
8.05000,-1.34213,-0.46727
8.10000,-1.35040,-0.47805
8.15000,-1.35853,-0.47691
8.20000,-1.36720,-0.48636
8.25000,-1.37546,-0.48546
8.30000,-1.38360,-0.49620
8.35000,-1.39200,-0.49470
8.40000,-1.40066,-0.50232
8.45000,-1.40866,-0.50632
8.50000,-1.41680,-0.51157
8.55000,-1.42546,-0.51393
8.60000,-1.43360,-0.52223
8.65000,-1.44173,-0.52304
8.70000,-1.45026,-0.53068
8.75000,-1.45866,-0.53244
8.80000,-1.46693,-0.54122
8.85000,-1.47533,-0.53972
8.90000,-1.48386,-0.55308
8.95000,-1.49213,-0.54956
9.00000,-1.50040,-0.56166
9.05000,-1.50880,-0.56173
9.10000,-1.51720,-0.57033
9.15000,-1.52560,-0.57359
9.20000,-1.53373,-0.57911
9.25000,-1.54213,-0.58272
9.30000,-1.55053,-0.59054
9.35000,-1.55866,-0.59187
9.40000,-1.56693,-0.59781
9.45000,-1.57546,-0.60641
9.50000,-1.58373,-0.60531
9.55000,-1.59186,-0.61511
9.60000,-1.60053,-0.61748
9.65000,-1.60893,-0.62492
9.70000,-1.61706,-0.62611
9.75000,-1.62546,-0.63759
9.80000,-1.63400,-0.63667
9.85000,-1.64213,-0.64658
9.90000,-1.65053,-0.64682
9.95000,-1.65893,-0.65882
10.00000,-1.66706,-0.65613
10.05000,-1.67533,-0.67040
10.10000,-1.68373,-0.66676
10.15000,-1.69200,-0.68067
10.20000,-1.70026,-0.67989
10.25000,-1.70866,-0.69125
10.30000,-1.71680,-0.69303
10.35000,-1.72546,-0.70159
10.40000,-1.73373,-0.70478
10.45000,-1.74200,-0.71314
10.50000,-1.75053,-0.71494
10.55000,-1.75880,-0.72329
10.60000,-1.76693,-0.72729
10.65000,-1.77533,-0.73364
10.70000,-1.78400,-0.73894
10.75000,-1.79200,-0.74451
10.80000,-1.80026,-0.74997
10.85000,-1.80880,-0.75752
10.90000,-1.81693,-0.76029
10.95000,-1.82506,-0.76925
11.00000,-1.83360,-0.77404
11.05000,-1.84186,-0.77824
11.10000,-1.85013,-0.78704
11.15000,-1.85853,-0.79152
11.20000,-1.86693,-0.79736
11.25000,-1.87533,-0.80267
11.30000,-1.88373,-0.81090
11.35000,-1.89200,-0.81330
11.40000,-1.90053,-0.82415
11.45000,-1.90880,-0.82096
11.50000,-1.91680,-0.84091
11.55000,-1.92520,-0.83264
11.60000,-1.93386,-0.84523
11.65000,-1.94200,-0.85084
11.70000,-1.95026,-0.85695
11.75000,-1.95880,-0.85648
11.80000,-1.96693,-0.87145
11.85000,-1.97506,-0.86999
11.90000,-1.98360,-0.87924
11.95000,-1.99213,-0.88294
12.00000,-2.00026,-0.89480
12.05000,-2.00880,-0.89502
12.10000,-2.01720,-0.90475
12.15000,-2.02546,-0.90899
12.20000,-2.03373,-0.91698
12.25000,-2.04213,-0.92087
12.30000,-2.05053,-0.92959
12.35000,-2.05879,-0.93201
12.40000,-2.06706,-0.94153
12.45000,-2.07546,-0.94550
12.50000,-2.08373,-0.95246
12.55000,-2.09199,-0.95610
12.60000,-2.10013,-0.96569
12.65000,-2.10879,-0.96911
12.70000,-2.11706,-0.97463
12.75000,-2.12519,-0.98198
12.80000,-2.13373,-0.98771
12.85000,-2.14213,-0.99294
12.90000,-2.15026,-1.00129
12.95000,-2.15879,-1.00569
13.00000,-2.16733,-1.01175
13.05000,-2.17546,-1.01898
13.10000,-2.18386,-1.02128
13.15000,-2.19226,-1.03176
13.20000,-2.20039,-1.03166
13.25000,-2.20866,-1.04887
13.30000,-2.21706,-1.03745
13.35000,-2.22533,-1.05876
13.40000,-2.23373,-1.05585
13.45000,-2.24199,-1.06483
13.50000,-2.25013,-1.06600
13.55000,-2.25879,-1.07741
13.60000,-2.26706,-1.07861
13.65000,-2.27519,-1.08590
13.70000,-2.28386,-1.08998
13.75000,-2.29226,-1.09799
13.80000,-2.30013,-1.09932
13.85000,-2.30866,-1.10466
13.90000,-2.31719,-1.11515
13.95000,-2.32533,-1.11298
14.00000,-2.33359,-1.12430
14.05000,-2.34199,-1.12551
14.10000,-2.35026,-1.13584
14.15000,-2.35853,-1.13502
14.20000,-2.36693,-1.14898
14.25000,-2.37519,-1.14726
14.30000,-2.38346,-1.15861
14.35000,-2.39186,-1.15810
14.40000,-2.40026,-1.16990
14.45000,-2.40866,-1.16528
14.50000,-2.41706,-1.18507
14.55000,-2.42519,-1.17319
14.60000,-2.43373,-1.19379
14.65000,-2.44213,-1.19022
14.70000,-2.45026,-1.20051
14.75000,-2.45879,-1.20234
14.80000,-2.46733,-1.21214
14.85000,-2.47533,-1.21361
14.90000,-2.48346,-1.22129
14.95000,-2.49213,-1.22628
15.00000,-2.50013,-1.23190
15.05000,-2.50839,-1.23609
15.10000,-2.51693,-1.24613
15.15000,-2.52533,-1.24504
15.20000,-2.53359,-1.25724
15.25000,-2.54199,-1.25981
15.30000,-2.55053,-1.26438
15.35000,-2.55879,-1.27293
15.40000,-2.56706,-1.27664
15.45000,-2.57533,-1.28555
15.50000,-2.58373,-1.28863
15.55000,-2.59199,-1.29669
15.60000,-2.60039,-1.30267
15.65000,-2.60879,-1.30926
15.70000,-2.61706,-1.31397
15.75000,-2.62533,-1.31942
15.80000,-2.63359,-1.32802
15.85000,-2.64213,-1.33141
15.90000,-2.65026,-1.33838
15.95000,-2.65853,-1.34383
16.00000,-2.66719,-1.35110
16.05000,-2.67559,-1.35507
16.10000,-2.68373,-1.36223
16.15000,-2.69213,-1.36840
16.20000,-2.70066,-1.37303
16.25000,-2.70879,-1.37768
16.30000,-2.71706,-1.38524
16.35000,-2.72546,-1.38993
16.40000,-2.73386,-1.39637
16.45000,-2.74213,-1.40059
16.50000,-2.75039,-1.40806
16.55000,-2.75879,-1.41255
16.60000,-2.76706,-1.41964
16.65000,-2.77533,-1.42462
16.70000,-2.78359,-1.43053
16.75000,-2.79213,-1.43712
16.80000,-2.80039,-1.44294
16.85000,-2.80853,-1.44741
16.90000,-2.81719,-1.45556
16.95000,-2.82559,-1.46080
17.00000,-2.83373,-1.46613
17.05000,-2.84213,-1.47185
17.10000,-2.85066,-1.47948
17.15000,-2.85866,-1.48284
17.20000,-2.86693,-1.48896
17.25000,-2.87546,-1.49597
17.30000,-2.88359,-1.50170
17.35000,-2.89186,-1.50657
17.40000,-2.90026,-1.51230
17.45000,-2.90853,-1.51962
17.50000,-2.91679,-1.52454
17.55000,-2.92519,-1.52999
17.60000,-2.93346,-1.53585
17.65000,-2.94199,-1.54220
17.70000,-2.95039,-1.54816
17.75000,-2.95853,-1.55309
17.80000,-2.96706,-1.55883
17.85000,-2.97559,-1.56677
17.90000,-2.98359,-1.57161
17.95000,-2.99186,-1.57612
18.00000,-3.00053,-1.58288
18.05000,-3.00853,-1.59028
18.10000,-3.01679,-1.59253
18.15000,-3.02546,-1.60081
18.20000,-3.03359,-1.60542
18.25000,-3.04186,-1.61219
18.30000,-3.05026,-1.61634
18.35000,-3.05879,-1.62302
18.40000,-3.06706,-1.62855
18.45000,-3.07546,-1.63707
18.50000,-3.08386,-1.63737
18.55000,-3.09213,-1.64714
18.60000,-3.10053,-1.65153
18.65000,-3.10879,-1.65851
18.70000,-3.11719,-1.66031
18.75000,-3.12546,-1.67136
18.80000,-3.13373,-1.67341
18.85000,-3.14213,-1.68089
18.90000,-3.15053,-1.68322
18.95000,-3.15866,-1.69502
19.00000,-3.16679,-1.69388
19.05000,-3.17546,-1.70348
19.10000,-3.18373,-1.70754
19.15000,-3.19186,-1.71525
19.20000,-3.20053,-1.71761
19.25000,-3.20893,-1.72561
19.30000,-3.21706,-1.73154
19.35000,-3.22546,-1.73661
19.40000,-3.23399,-1.74082
19.45000,-3.24213,-1.74923
19.50000,-3.25039,-1.75150
19.55000,-3.25866,-1.76095
19.60000,-3.26706,-1.76235
19.65000,-3.27546,-1.77245
19.70000,-3.28373,-1.77523
19.75000,-3.29213,-1.78192
19.80000,-3.30039,-1.78587
19.85000,-3.30866,-1.79340
19.90000,-3.31693,-1.79719
19.95000,-3.32546,-1.80276
20.00000,-3.33373,-1.80945
20.05000,-3.34186,-1.81354
20.10000,-3.35053,-1.81950
20.15000,-3.35893,-1.82565
20.20000,-3.36693,-1.83060
20.25000,-3.37533,-1.83410
20.30000,-3.38399,-1.84288
20.35000,-3.39199,-1.84499
20.40000,-3.40039,-1.85242
20.45000,-3.40879,-1.85599
20.50000,-3.41706,-1.86302
20.55000,-3.42519,-1.86558
20.60000,-3.43359,-1.87334
20.65000,-3.44186,-1.87732
20.70000,-3.45012,-1.88242
20.75000,-3.45852,-1.88837
20.80000,-3.46692,-1.89426
20.85000,-3.47546,-1.89834
20.90000,-3.48372,-1.90535
20.95000,-3.49186,-1.90920
21.00000,-3.50039,-1.91604
21.05000,-3.50892,-1.91942
21.10000,-3.51692,-1.92638
21.15000,-3.52532,-1.93029
21.20000,-3.53386,-1.93677
21.25000,-3.54186,-1.94111
21.30000,-3.55012,-1.94705
21.35000,-3.55879,-1.95090
21.40000,-3.56692,-1.95895
21.45000,-3.57506,-1.96075
21.50000,-3.58359,-1.96926
21.55000,-3.59212,-1.97198
21.60000,-3.60026,-1.97965
21.65000,-3.60866,-1.98136
21.70000,-3.61706,-1.99198
21.75000,-3.62532,-1.99281
21.80000,-3.63372,-2.00037
21.85000,-3.64199,-2.00520
21.90000,-3.65052,-2.01129
21.95000,-3.65879,-2.01462
22.00000,-3.66692,-2.02244
22.05000,-3.67532,-2.02441
22.10000,-3.68372,-2.03325
22.15000,-3.69199,-2.03506
22.20000,-3.70026,-2.04386
22.25000,-3.70879,-2.04548
22.30000,-3.71706,-2.05384
22.35000,-3.72519,-2.05631
22.40000,-3.73386,-2.06329
22.45000,-3.74226,-2.06712
22.50000,-3.75039,-2.07377
22.55000,-3.75879,-2.07712
22.60000,-3.76732,-2.08429
22.65000,-3.77546,-2.08679
22.70000,-3.78386,-2.09367
22.75000,-3.79226,-2.09828
22.80000,-3.80052,-2.10289
22.85000,-3.80879,-2.10789
22.90000,-3.81706,-2.11240
22.95000,-3.82532,-2.11790
23.00000,-3.83372,-2.12145
23.05000,-3.84186,-2.12822
23.10000,-3.85026,-2.13101
23.15000,-3.85879,-2.13694
23.20000,-3.86719,-2.14128
23.25000,-3.87532,-2.14835
23.30000,-3.88386,-2.14962
23.35000,-3.89226,-2.15843
23.40000,-3.90026,-2.15592
23.45000,-3.90866,-2.16754
23.50000,-3.91719,-2.16548
23.55000,-3.92519,-2.17696
23.60000,-3.93359,-2.17503
23.65000,-3.94212,-2.18741
23.70000,-3.95039,-2.18429
23.75000,-3.95852,-2.19408
23.80000,-3.96692,-2.19685
23.85000,-3.97506,-2.20063
23.90000,-3.98346,-2.20688
23.95000,-3.99186,-2.20814
24.00000,-4.00012,-2.21657
24.05000,-4.00866,-2.21692
24.10000,-4.01706,-2.22669
24.15000,-4.02519,-2.22654
24.20000,-4.03372,-2.23721
24.25000,-4.04212,-2.23599
24.30000,-4.05026,-2.24753
24.35000,-4.05866,-2.24334
24.40000,-4.06719,-2.25637
24.45000,-4.07519,-2.25150
24.50000,-4.08346,-2.26286
24.55000,-4.09199,-2.25920
24.60000,-4.10026,-2.26435
24.65000,-4.10839,-2.24235
24.70000,-4.11679,-2.24748
24.75000,-4.12532,-2.24938
24.80000,-4.13359,-2.26284
24.85000,-4.14199,-2.26397
24.90000,-4.15039,-2.27532
24.95000,-4.15879,-2.27720
25.00000,-4.16706,-2.28758
25.05000,-4.17546,-2.28931
25.10000,-4.18386,-2.29838
25.15000,-4.19226,-2.30102
25.20000,-4.20039,-2.31016
25.25000,-4.20866,-2.31045
25.30000,-4.21719,-2.32040
25.35000,-4.22532,-2.32113
25.40000,-4.23346,-2.32915
25.45000,-4.24212,-2.33066
25.50000,-4.25039,-2.33895
25.55000,-4.25852,-2.34060
25.60000,-4.26719,-2.34712
25.65000,-4.27559,-2.34369
25.70000,-4.28372,-2.33559
25.75000,-4.29212,-2.34329
25.80000,-4.30066,-2.35120
25.85000,-4.30879,-2.35630
25.90000,-4.31706,-2.36288
25.95000,-4.32559,-2.36755
26.00000,-4.33386,-2.37443
26.05000,-4.34212,-2.37857
26.10000,-4.35026,-2.38424
26.15000,-4.35866,-2.38891
26.20000,-4.36706,-2.39366
26.25000,-4.37532,-2.39956
26.30000,-4.38359,-2.40337
26.35000,-4.39212,-2.40893
26.40000,-4.40026,-2.41235
26.45000,-4.40839,-2.41830
26.50000,-4.41706,-2.38355
26.55000,-4.42546,-2.32797
26.60000,-4.43359,-2.34794
26.65000,-4.44199,-2.36161
26.70000,-4.45066,-2.37156
26.75000,-4.45866,-2.38160
26.80000,-4.46706,-2.38998
26.85000,-4.47546,-2.39840
26.90000,-4.48372,-2.40530
26.95000,-4.49186,-2.41274
27.00000,-4.50026,-2.41983
27.05000,-4.50852,-2.42571
27.10000,-4.51679,-2.43184
27.15000,-4.52519,-2.43845
27.20000,-4.53346,-2.44464
27.25000,-4.54199,-2.44930
27.30000,-4.55039,-2.45574
27.35000,-4.55852,-2.45999
27.40000,-4.56706,-2.41633
27.45000,-4.57546,-2.41533
27.50000,-4.58359,-2.42971
27.55000,-4.59199,-2.43647
27.60000,-4.60052,-2.44682
27.65000,-4.60866,-2.45236
27.70000,-4.61679,-2.45925
27.75000,-4.62546,-2.46466
27.80000,-4.63359,-2.47245
27.85000,-4.64172,-2.47664
27.90000,-4.65026,-2.48338
27.95000,-4.65866,-2.48879
28.00000,-4.66692,-2.49536
28.05000,-4.67532,-2.49984
28.10000,-4.68386,-2.50701
28.15000,-4.69212,-2.51184
28.20000,-4.70052,-2.51775
28.25000,-4.70866,-2.52120
28.30000,-4.71719,-2.52852
28.35000,-4.72546,-2.53109
28.40000,-4.73372,-2.53743
28.45000,-4.74212,-2.54066
28.50000,-4.75052,-2.54770
28.55000,-4.75866,-2.55146
28.60000,-4.76692,-2.55611
28.65000,-4.77546,-2.56123
28.70000,-4.78372,-2.56687
28.75000,-4.79185,-2.56915
28.80000,-4.80039,-2.57529
28.85000,-4.80892,-2.58034
28.90000,-4.81706,-2.58403
28.95000,-4.82532,-2.58929
29.00000,-4.83399,-2.59251
29.05000,-4.84212,-2.59917
29.10000,-4.85052,-2.60059
29.15000,-4.85892,-2.60818
29.20000,-4.86719,-2.60993
29.25000,-4.87532,-2.61567
29.30000,-4.88359,-2.61843
29.35000,-4.89199,-2.62373
29.40000,-4.90025,-2.62711
29.45000,-4.90852,-2.63098
29.50000,-4.91679,-2.63615
29.55000,-4.92545,-2.63952
29.60000,-4.93372,-2.64467
29.65000,-4.94185,-2.64810
29.70000,-4.95039,-2.65304
29.75000,-4.95879,-2.65667
29.80000,-4.96679,-2.66043
29.85000,-4.97519,-2.66376
29.90000,-4.98385,-2.66995
29.95000,-4.99199,-2.67036
30.00000,-5.00025,-2.67760
30.05000,-5.00865,-2.68075
30.10000,-5.01692,-2.68264
30.15000,-5.02532,-2.68795
30.20000,-5.03359,-2.69177
30.25000,-5.04199,-2.69464
30.30000,-5.05025,-2.69956
30.35000,-5.05852,-2.70187
30.40000,-5.06679,-2.70875
30.45000,-5.07532,-2.70801
30.50000,-5.08372,-2.71599
30.55000,-5.09185,-2.71881
30.60000,-5.10039,-2.72216
30.65000,-5.10879,-2.72659
30.70000,-5.11692,-2.73179
30.75000,-5.12532,-2.73275
30.80000,-5.13399,-2.73901
30.85000,-5.14199,-2.74142
30.90000,-5.15012,-2.74661
30.95000,-5.15865,-2.74789
31.00000,-5.16692,-2.75514
31.05000,-5.17505,-2.75515
31.10000,-5.18359,-2.76296
31.15000,-5.19212,-2.76352
31.20000,-5.20025,-2.77083
31.25000,-5.20865,-2.77062
31.30000,-5.21705,-2.77873
31.35000,-5.22532,-2.77855
31.40000,-5.23372,-2.78587
31.45000,-5.24199,-2.78506
31.50000,-5.25052,-2.79434
31.55000,-5.25892,-2.79440
31.60000,-5.26719,-2.80071
31.65000,-5.27545,-2.80166
31.70000,-5.28399,-2.80875
31.75000,-5.29212,-2.81009
31.80000,-5.30025,-2.81418
31.85000,-5.30865,-2.81469
31.90000,-5.31705,-2.82362
31.95000,-5.32519,-2.82218
32.00000,-5.33385,-2.82944
32.05000,-5.34225,-2.83207
32.10000,-5.35039,-2.83870
32.15000,-5.35879,-2.83954
32.20000,-5.36732,-2.84144
32.25000,-5.37545,-2.85198
32.30000,-5.38385,-2.84845
32.35000,-5.39212,-2.85846
32.40000,-5.40039,-2.85750
32.45000,-5.40879,-2.86519
32.50000,-5.41705,-2.87058
32.55000,-5.42545,-2.86575
32.60000,-5.43372,-2.87454
32.65000,-5.44185,-2.88167
32.70000,-5.45012,-2.87983
32.75000,-5.45865,-2.88851
32.80000,-5.46705,-2.88740
32.85000,-5.47532,-2.89559
32.90000,-5.48372,-2.89544
32.95000,-5.49225,-2.90216
33.00000,-5.50025,-2.90432
33.05000,-5.50879,-2.90787
33.10000,-5.51732,-2.91192
33.15000,-5.52532,-2.91492
33.20000,-5.53372,-2.91994
33.25000,-5.54199,-2.92107
33.30000,-5.55025,-2.92670
33.35000,-5.55852,-2.92713
33.40000,-5.56692,-2.93490
33.45000,-5.57532,-2.93380
33.50000,-5.58345,-2.94225
33.55000,-5.59199,-2.94121
33.60000,-5.60025,-2.95034
33.65000,-5.60879,-2.94846
33.70000,-5.61705,-2.95822
33.75000,-5.62519,-2.95651
33.80000,-5.63385,-2.96458
33.85000,-5.64212,-2.96475
33.90000,-5.65025,-2.97006
33.95000,-5.65865,-2.97326
34.00000,-5.66719,-2.97777
34.05000,-5.67519,-2.97987
34.10000,-5.68345,-2.98553
34.15000,-5.69212,-2.98627
34.20000,-5.70025,-2.99371
34.25000,-5.70852,-2.99332
34.30000,-5.71692,-3.00038
34.35000,-5.72532,-3.00193
34.40000,-5.73345,-3.00686
34.45000,-5.74199,-3.01026
34.50000,-5.75039,-3.01310
34.55000,-5.75879,-3.01914
34.60000,-5.76719,-3.02030
34.65000,-5.77545,-3.02522
34.70000,-5.78385,-3.02589
34.75000,-5.79212,-3.03187
34.80000,-5.80039,-3.03362
34.85000,-5.80879,-3.03763
34.90000,-5.81705,-3.04099
34.95000,-5.82519,-3.04576
35.00000,-5.83345,-3.04636
35.05000,-5.84212,-3.05289
35.10000,-5.85025,-3.05466
35.15000,-5.85852,-3.06000
35.20000,-5.86719,-3.06134
35.25000,-5.87559,-3.06798
35.30000,-5.88359,-3.06865
35.35000,-5.89199,-3.07325
35.40000,-5.90065,-3.07603
35.45000,-5.90879,-3.07988
35.50000,-5.91719,-3.08348
35.55000,-5.92559,-3.08760
35.60000,-5.93385,-3.08956
35.65000,-5.94212,-3.09351
35.70000,-5.95039,-3.09619
35.75000,-5.95879,-3.09888
35.80000,-5.96705,-3.10123
35.85000,-5.97532,-3.10674
35.90000,-5.98359,-3.10690
35.95000,-5.99212,-3.11155
36.00000,-6.00039,-3.11380
36.05000,-6.00852,-3.11883
36.10000,-6.01719,-3.11842
36.15000,-6.02559,-3.12492
36.20000,-6.03359,-3.12508
36.25000,-6.04199,-3.13033
36.30000,-6.05065,-3.13096
36.35000,-6.05865,-3.13552
36.40000,-6.06692,-3.13667
36.45000,-6.07545,-3.14090
36.50000,-6.08359,-3.14122
36.55000,-6.09185,-3.14564
36.60000,-6.10025,-3.14727
36.65000,-6.10852,-3.15016
36.70000,-6.11679,-3.15218
36.75000,-6.12519,-3.15583
36.80000,-6.13345,-3.15823
36.85000,-6.14198,-3.16179
36.90000,-6.15038,-3.16348
36.95000,-6.15852,-3.16778
37.00000,-6.16705,-3.16805
37.05000,-6.17545,-3.17281
37.10000,-6.18359,-3.17448
37.15000,-6.19198,-3.17702
37.20000,-6.20065,-3.18026
37.25000,-6.20852,-3.18275
37.30000,-6.21678,-3.18429
37.35000,-6.22545,-3.18621
37.40000,-6.23358,-3.19102
37.45000,-6.24172,-3.19046
37.50000,-6.25025,-3.19545
37.55000,-6.25865,-3.19720
37.60000,-6.26692,-3.20100
37.65000,-6.27545,-3.20152
37.70000,-6.28385,-3.20692
37.75000,-6.29212,-3.20772
37.80000,-6.30038,-3.21150
37.85000,-6.30878,-3.21345
37.90000,-6.31718,-3.21741
37.95000,-6.32558,-3.21862
38.00000,-6.33372,-3.22303
38.05000,-6.34212,-3.22234
38.10000,-6.35052,-3.22894
38.15000,-6.35865,-3.22792
38.20000,-6.36692,-3.23335
38.25000,-6.37545,-3.23377
38.30000,-6.38372,-3.23878
38.35000,-6.39185,-3.23841
38.40000,-6.40038,-3.24433
38.45000,-6.40878,-3.24449
38.50000,-6.41692,-3.24869
38.55000,-6.42532,-3.25017
38.60000,-6.43385,-3.25301
38.65000,-6.44198,-3.25559
38.70000,-6.45052,-3.25775
38.75000,-6.45892,-3.26056
38.80000,-6.46718,-3.26278
38.85000,-6.47545,-3.26535
38.90000,-6.48372,-3.26782
38.95000,-6.49212,-3.27044
39.00000,-6.50025,-3.27292
39.05000,-6.50852,-3.27513
39.10000,-6.51678,-3.27797
39.15000,-6.52545,-3.28122
39.20000,-6.53372,-3.28501
39.25000,-6.54185,-3.28699
39.30000,-6.55038,-3.29026
39.35000,-6.55878,-3.29349
39.40000,-6.56692,-3.29628
39.45000,-6.57532,-3.29850
39.50000,-6.58398,-3.30333
39.55000,-6.59212,-3.30492
39.60000,-6.60038,-3.30777
39.65000,-6.60878,-3.31089
39.70000,-6.61705,-3.31404
39.75000,-6.62518,-3.31558
39.80000,-6.63358,-3.32004
39.85000,-6.64185,-3.32205
39.90000,-6.65025,-3.32598
39.95000,-6.65865,-3.32838
40.00000,-6.66692,-3.33259
40.05000,-6.67545,-3.33461
40.10000,-6.68372,-3.33899
40.15000,-6.69198,-3.34120
40.20000,-6.70052,-3.34486
40.25000,-6.70878,-3.34712
40.30000,-6.71692,-3.35080
40.35000,-6.72532,-3.35280
40.40000,-6.73398,-3.35625
40.45000,-6.74185,-3.35894
40.50000,-6.75012,-3.36082
40.55000,-6.75878,-3.36399
40.60000,-6.76692,-3.36670
40.65000,-6.77518,-3.36948
40.70000,-6.78372,-3.37195
40.75000,-6.79198,-3.37522
40.80000,-6.80012,-3.37763
40.85000,-6.80865,-3.37944
40.90000,-6.81705,-3.38369
40.95000,-6.82532,-3.38500
41.00000,-6.83372,-3.38813
41.05000,-6.84198,-3.39145
41.10000,-6.85052,-3.39319
41.15000,-6.85878,-3.39598
41.20000,-6.86705,-3.39996
41.25000,-6.87545,-3.40129
41.30000,-6.88372,-3.40416
41.35000,-6.89198,-3.40665
41.40000,-6.90025,-3.40876
41.45000,-6.90878,-3.41143
41.50000,-6.91705,-3.41525
41.55000,-6.92518,-3.41571
41.60000,-6.93385,-3.42034
41.65000,-6.94212,-3.42240
41.70000,-6.95025,-3.42444
41.75000,-6.95865,-3.42728
41.80000,-6.96732,-3.43052
41.85000,-6.97545,-3.43334
41.90000,-6.98385,-3.43519
41.95000,-6.99225,-3.43903
42.00000,-7.00038,-3.44036
42.05000,-7.00878,-3.44342
42.10000,-7.01705,-3.44597
42.15000,-7.02545,-3.44838
42.20000,-7.03385,-3.45163
42.25000,-7.04198,-3.45390
42.30000,-7.05025,-3.45544
42.35000,-7.05878,-3.45863
42.40000,-7.06705,-3.46225
42.45000,-7.07518,-3.46365
42.50000,-7.08372,-3.46636
42.55000,-7.09225,-3.46963
42.60000,-7.10038,-3.47171
42.65000,-7.10878,-3.47447
42.70000,-7.11732,-3.47785
42.75000,-7.12532,-3.47983
42.80000,-7.13372,-3.48221
42.85000,-7.14212,-3.48504
42.90000,-7.15012,-3.48801
42.95000,-7.15852,-3.48970
43.00000,-7.16705,-3.49417
43.05000,-7.17518,-3.49670
43.10000,-7.18345,-3.50005
43.15000,-7.19185,-3.50239
43.20000,-7.20025,-3.50646
43.25000,-7.20865,-3.50960
43.30000,-7.21705,-3.51315
43.35000,-7.22518,-3.51596
43.40000,-7.23372,-3.51882
43.45000,-7.24212,-3.52299
43.50000,-7.25025,-3.52552
43.55000,-7.25878,-3.52878
43.60000,-7.26732,-3.53280
43.65000,-7.27532,-3.53467
43.70000,-7.28345,-3.53890
43.75000,-7.29212,-3.54001
43.80000,-7.30025,-3.54559
43.85000,-7.30838,-3.54542
43.90000,-7.31692,-3.55141
43.95000,-7.32532,-3.55291
44.00000,-7.33358,-3.55834
44.05000,-7.34212,-3.55929
44.10000,-7.35052,-3.56477
44.15000,-7.35878,-3.56489
44.20000,-7.36718,-3.57020
44.25000,-7.37545,-3.57176
44.30000,-7.38372,-3.57454
44.35000,-7.39212,-3.57783
44.40000,-7.40038,-3.58109
44.45000,-7.40878,-3.58311
44.50000,-7.41718,-3.58548
44.55000,-7.42532,-3.59031
44.60000,-7.43358,-3.58984
44.65000,-7.44212,-3.59437
44.70000,-7.45038,-3.59636
44.75000,-7.45851,-3.59920
44.80000,-7.46718,-3.59961
44.85000,-7.47558,-3.60401
44.90000,-7.48358,-3.60481
44.95000,-7.49198,-3.60824
45.00000,-7.50065,-3.61037
45.05000,-7.50878,-3.61243
45.10000,-7.51718,-3.61457
45.15000,-7.52558,-3.61799
45.20000,-7.53385,-3.61862
45.25000,-7.54211,-3.62205
45.30000,-7.55038,-3.62404
45.35000,-7.55878,-3.62598
45.40000,-7.56718,-3.62790
45.45000,-7.57531,-3.63133
45.50000,-7.58358,-3.63105
45.55000,-7.59211,-3.63444
45.60000,-7.60038,-3.63701
45.65000,-7.60851,-3.63871
45.70000,-7.61718,-3.64066
45.75000,-7.62545,-3.64309
45.80000,-7.63358,-3.64576
45.85000,-7.64211,-3.64595
45.90000,-7.65065,-3.65022
45.95000,-7.65865,-3.65143
46.00000,-7.66691,-3.65310
46.05000,-7.67545,-3.65668
46.10000,-7.68358,-3.65751
46.15000,-7.69185,-3.66070
46.20000,-7.70025,-3.66175
46.25000,-7.70851,-3.66582
46.30000,-7.71678,-3.66640
46.35000,-7.72518,-3.67031
46.40000,-7.73358,-3.67208
46.45000,-7.74211,-3.67601
46.50000,-7.75038,-3.67838
46.55000,-7.75865,-3.68005
46.60000,-7.76718,-3.68374
46.65000,-7.77558,-3.68493
46.70000,-7.78371,-3.68992
46.75000,-7.79211,-3.68951
46.80000,-7.80051,-3.69448
46.85000,-7.80851,-3.69430
46.90000,-7.81678,-3.69873
46.95000,-7.82531,-3.69749
47.00000,-7.83345,-3.70567
47.05000,-7.84171,-3.70250
47.10000,-7.85025,-3.71018
47.15000,-7.85865,-3.70851
47.20000,-7.86691,-3.71739
47.25000,-7.87531,-3.71384
47.30000,-7.88385,-3.72116
47.35000,-7.89198,-3.72064
47.40000,-7.90038,-3.72566
47.45000,-7.90878,-3.72804
47.50000,-7.91718,-3.73123
47.55000,-7.92558,-3.73423
47.60000,-7.93371,-3.73835
47.65000,-7.94198,-3.73957
47.70000,-7.95051,-3.74402
47.75000,-7.95865,-3.74670
47.80000,-7.96691,-3.74941
47.85000,-7.97545,-3.75321
47.90000,-7.98358,-3.75636
47.95000,-7.99185,-3.75961
48.00000,-8.00038,-3.76274
48.05000,-8.00891,-3.76674
48.10000,-8.01691,-3.77039
48.15000,-8.02531,-3.77209
48.20000,-8.03398,-3.77728
48.25000,-8.04211,-3.77994
48.30000,-8.05051,-3.78366
48.35000,-8.05891,-3.78701
48.40000,-8.06718,-3.79037
48.45000,-8.07531,-3.79307
48.50000,-8.08371,-3.79723
48.55000,-8.09211,-3.79927
48.60000,-8.10038,-3.80498
48.65000,-8.10865,-3.80528
48.70000,-8.11691,-3.81134
48.75000,-8.12545,-3.81232
48.80000,-8.13371,-3.81798
48.85000,-8.14185,-3.81843
48.90000,-8.15038,-3.82515
48.95000,-8.15878,-3.82584
49.00000,-8.16691,-3.83049
49.05000,-8.17531,-3.83271
49.10000,-8.18398,-3.83824
49.15000,-8.19198,-3.84003
49.20000,-8.20038,-3.84344
49.25000,-8.20878,-3.84660
49.30000,-8.21691,-3.85110
49.35000,-8.22518,-3.85173
49.40000,-8.23358,-3.85713
49.45000,-8.24185,-3.85977
49.50000,-8.25011,-3.86247
49.55000,-8.25851,-3.86487
49.60000,-8.26691,-3.87001
49.65000,-8.27531,-3.87240
49.70000,-8.28371,-3.87578
49.75000,-8.29185,-3.87969
49.80000,-8.30038,-3.88184
49.85000,-8.30878,-3.88653
49.90000,-8.31691,-3.88878
49.95000,-8.32518,-3.89301
50.00000,-8.33385,-3.89400
50.05000,-8.34198,-3.90181
50.10000,-8.35011,-3.90043
50.15000,-8.35878,-3.90720
50.20000,-8.36691,-3.90732
50.25000,-8.37518,-3.91522
50.30000,-8.38358,-3.91395
50.35000,-8.39198,-3.92189
50.40000,-8.40025,-3.92253
50.45000,-8.40865,-3.93115
50.50000,-8.41705,-3.92924
50.55000,-8.42545,-3.93865
50.60000,-8.43385,-3.93826
50.65000,-8.44211,-3.94529
50.70000,-8.45051,-3.94489
50.75000,-8.45891,-3.95220
50.80000,-8.46705,-3.95314
50.85000,-8.47531,-3.95796
50.90000,-8.48371,-3.95934
50.95000,-8.49198,-3.96554
51.00000,-8.50011,-3.96785
51.05000,-8.50878,-3.97092
51.10000,-8.51705,-3.97625
51.15000,-8.52518,-3.97915
51.20000,-8.53371,-3.98285
51.25000,-8.54225,-3.98741
51.30000,-8.55025,-3.99010
51.35000,-8.55878,-3.99429
51.40000,-8.56731,-3.99856
51.45000,-8.57545,-4.00016
51.50000,-8.58385,-4.00621
51.55000,-8.59225,-4.00766
51.60000,-8.60051,-4.01271
51.65000,-8.60878,-4.01329
51.70000,-8.61691,-4.01924
51.75000,-8.62531,-4.01873
51.80000,-8.63371,-4.02683
51.85000,-8.64198,-4.02613
51.90000,-8.65011,-4.03177
51.95000,-8.65878,-4.03271
52.00000,-8.66705,-4.03926
52.05000,-8.67518,-4.03835
52.10000,-8.68385,-4.04627
52.15000,-8.69225,-4.04350
52.20000,-8.70025,-4.05109
52.25000,-8.70878,-4.05011
52.30000,-8.71731,-4.05592
52.35000,-8.72531,-4.05906
52.40000,-8.73358,-4.06330
52.45000,-8.74211,-4.06327
52.50000,-8.75038,-4.07048
52.55000,-8.75865,-4.06998
52.60000,-8.76691,-4.07756
52.65000,-8.77531,-4.07594
52.70000,-8.78345,-4.08380
52.75000,-8.79185,-4.08237
52.80000,-8.80024,-4.09096
52.85000,-8.80865,-4.08882
52.90000,-8.81691,-4.09891
52.95000,-8.82505,-4.09679
53.00000,-8.83371,-4.10516
53.05000,-8.84211,-4.10448
53.10000,-8.85024,-4.11508
53.15000,-8.85865,-4.11154
53.20000,-8.86731,-4.12109
53.25000,-8.87518,-4.12067
53.30000,-8.88358,-4.12546
53.35000,-8.89211,-4.12888
53.40000,-8.90024,-4.13227
53.45000,-8.90851,-4.13533
53.50000,-8.91691,-4.13887
53.55000,-8.92531,-4.14526
53.60000,-8.93358,-4.14523
53.65000,-8.94198,-4.15161
53.70000,-8.95038,-4.15383
53.75000,-8.95878,-4.15913
53.80000,-8.96691,-4.16092
53.85000,-8.97531,-4.16632
53.90000,-8.98371,-4.16958
53.95000,-8.99211,-4.17315
54.00000,-9.00024,-4.17780
54.05000,-9.00865,-4.17935
54.10000,-9.01704,-4.18609
54.15000,-9.02531,-4.18767
54.20000,-9.03344,-4.19231
54.25000,-9.04211,-4.19449
54.30000,-9.05038,-4.20100
54.35000,-9.05851,-4.20094
54.40000,-9.06718,-4.20688
54.45000,-9.07571,-4.20995
54.50000,-9.08371,-4.21449
54.55000,-9.09224,-4.21661
54.60000,-9.10078,-4.22049
54.65000,-9.10878,-4.22437
54.70000,-9.11704,-4.22655
54.75000,-9.12558,-4.23029
54.80000,-9.13384,-4.23335
54.85000,-9.14211,-4.23671
54.90000,-9.15038,-4.23980
54.95000,-9.15864,-4.24220
55.00000,-9.16704,-4.24655
55.05000,-9.17518,-4.24983
55.10000,-9.18344,-4.25160
55.15000,-9.19211,-4.25511
55.20000,-9.20024,-4.25921
55.25000,-9.20838,-4.26152
55.30000,-9.21704,-4.26371
55.35000,-9.22544,-4.26897
55.40000,-9.23358,-4.27141
55.45000,-9.24198,-4.27443
55.50000,-9.25064,-4.27831
55.55000,-9.25864,-4.28089
55.60000,-9.26704,-4.28432
55.65000,-9.27544,-4.28517
55.70000,-9.28371,-4.28984
55.75000,-9.29184,-4.29112
55.80000,-9.30024,-4.29453
55.85000,-9.30851,-4.29624
55.90000,-9.31678,-4.29980
55.95000,-9.32518,-4.30301
56.00000,-9.33344,-4.30525
56.05000,-9.34211,-4.30840
56.10000,-9.35051,-4.31238
56.15000,-9.35864,-4.31547
56.20000,-9.36704,-4.31619
56.25000,-9.37558,-4.32180
56.30000,-9.38358,-4.32386
56.35000,-9.39211,-4.32569
56.40000,-9.40064,-4.32824
56.45000,-9.40864,-4.33300
56.50000,-9.41678,-4.33308
56.55000,-9.42544,-4.33716
56.60000,-9.43371,-4.33961
56.65000,-9.44184,-4.34315
56.70000,-9.45024,-4.34463
56.75000,-9.45878,-4.34955
56.80000,-9.46691,-4.35118
56.85000,-9.47531,-4.35597
56.90000,-9.48384,-4.35715
56.95000,-9.49211,-4.36203
57.00000,-9.50038,-4.36441
57.05000,-9.50878,-4.36818
57.10000,-9.51718,-4.36861
57.15000,-9.52558,-4.37434
57.20000,-9.53371,-4.37482
57.25000,-9.54211,-4.37716
57.30000,-9.55051,-4.38026
57.35000,-9.55864,-4.38377
57.40000,-9.56678,-4.38437
57.45000,-9.57544,-4.38875
57.50000,-9.58371,-4.39081
57.55000,-9.59184,-4.39395
57.60000,-9.60038,-4.39617
57.65000,-9.60891,-4.40076
57.70000,-9.61704,-4.40226
57.75000,-9.62531,-4.40668
57.80000,-9.63384,-4.40771
57.85000,-9.64211,-4.41236
57.90000,-9.65051,-4.41414
57.95000,-9.65891,-4.41838
58.00000,-9.66718,-4.41948
58.05000,-9.67544,-4.42286
58.10000,-9.68371,-4.42513
58.15000,-9.69198,-4.42701
58.20000,-9.70038,-4.42987
58.25000,-9.70864,-4.43268
58.30000,-9.71678,-4.43485
58.35000,-9.72544,-4.43797
58.40000,-9.73371,-4.44202
58.45000,-9.74184,-4.44474
58.50000,-9.75038,-4.44644
58.55000,-9.75891,-4.45034
58.60000,-9.76691,-4.45314
58.65000,-9.77531,-4.45402
58.70000,-9.78398,-4.45770
58.75000,-9.79198,-4.45956
58.80000,-9.80024,-4.46207
58.85000,-9.80878,-4.46383
58.90000,-9.81691,-4.46746
58.95000,-9.82518,-4.46790
59.00000,-9.83358,-4.47218
59.05000,-9.84184,-4.47308
59.10000,-9.85011,-4.47625
59.15000,-9.85851,-4.47796
59.20000,-9.86678,-4.48126
59.25000,-9.87531,-4.48284
59.30000,-9.88371,-4.48747
59.35000,-9.89171,-4.48816
59.40000,-9.90038,-4.49124
59.45000,-9.90891,-4.49417
59.50000,-9.91691,-4.49759
59.55000,-9.92531,-4.49582
59.60000,-9.93398,-4.50221
59.65000,-9.94198,-4.50069
59.70000,-9.95011,-4.50426
59.75000,-9.95878,-4.50476
59.80000,-9.96691,-4.50894
59.85000,-9.97518,-4.50838
59.90000,-9.98358,-4.51170
59.95000,-9.99198,-4.51255
60.00000,-10.00024,-4.51553
60.05000,-10.00851,-4.51699
60.10000,-10.01704,-4.52072
60.15000,-10.02544,-4.52166
60.20000,-10.03384,-4.52529
60.25000,-10.04198,-4.52669
60.30000,-10.05051,-4.52895
60.35000,-10.05878,-4.53066
60.40000,-10.06704,-4.53312
60.45000,-10.07531,-4.53361
60.50000,-10.08384,-4.53659
60.55000,-10.09198,-4.53827
60.60000,-10.10024,-4.53967
60.65000,-10.10878,-4.54222
60.70000,-10.11704,-4.54499
60.75000,-10.12518,-4.54462
60.80000,-10.13384,-4.54810
60.85000,-10.14224,-4.55087
60.90000,-10.15038,-4.55184
60.95000,-10.15864,-4.55318
61.00000,-10.16731,-4.55671
61.05000,-10.17544,-4.55681
61.10000,-10.18371,-4.55979
61.15000,-10.19224,-4.56016
61.20000,-10.20051,-4.56248
61.25000,-10.20878,-4.56365
61.30000,-10.21704,-4.56587
61.35000,-10.22531,-4.56649
61.40000,-10.23384,-4.56943
61.45000,-10.24198,-4.57073
61.50000,-10.25011,-4.57083
61.55000,-10.25878,-4.57334
61.60000,-10.26704,-4.57626
61.65000,-10.27517,-4.57676
61.70000,-10.28371,-4.57814
61.75000,-10.29224,-4.58161
61.80000,-10.30024,-4.58367
61.85000,-10.30864,-4.58376
61.90000,-10.31731,-4.58684
61.95000,-10.32531,-4.58925
62.00000,-10.33358,-4.58927
62.05000,-10.34211,-4.59310
62.10000,-10.35024,-4.59351
62.15000,-10.35851,-4.59707
62.20000,-10.36691,-4.59700
62.25000,-10.37517,-4.59986
62.30000,-10.38344,-4.59995
62.35000,-10.39184,-4.60373
62.40000,-10.40011,-4.60347
62.45000,-10.40877,-4.60737
62.50000,-10.41704,-4.60820
62.55000,-10.42531,-4.61160
62.60000,-10.43384,-4.61150
62.65000,-10.44224,-4.61538
62.70000,-10.45024,-4.61657
62.75000,-10.45864,-4.61720
62.80000,-10.46717,-4.62103
62.85000,-10.47517,-4.62125
62.90000,-10.48344,-4.62409
62.95000,-10.49211,-4.62576
63.00000,-10.50024,-4.62851
63.05000,-10.50851,-4.62957
63.10000,-10.51691,-4.63242
63.15000,-10.52531,-4.63246
63.20000,-10.53357,-4.63541
63.25000,-10.54197,-4.63654
63.30000,-10.55037,-4.63983
63.35000,-10.55877,-4.64036
63.40000,-10.56717,-4.64304
63.45000,-10.57544,-4.64565
63.50000,-10.58384,-4.64561
63.55000,-10.59224,-4.64969
63.60000,-10.60037,-4.65014
63.65000,-10.60864,-4.65179
63.70000,-10.61717,-4.65450
63.75000,-10.62531,-4.65596
63.80000,-10.63344,-4.65748
63.85000,-10.64211,-4.65981
63.90000,-10.65037,-4.66335
63.95000,-10.65851,-4.66379
64.00000,-10.66704,-4.66783
64.05000,-10.67557,-4.66899
64.10001,-10.68371,-4.67356
64.15000,-10.69197,-4.67330
64.20000,-10.70051,-4.67814
64.25000,-10.70877,-4.67737
64.30000,-10.71704,-4.68402
64.35001,-10.72544,-4.68317
64.40000,-10.73384,-4.68937
64.45000,-10.74197,-4.68580
64.50000,-10.75024,-4.69246
64.55000,-10.75877,-4.69098
64.60001,-10.76717,-4.69618
64.65000,-10.77531,-4.69695
64.70000,-10.78357,-4.69933
64.75000,-10.79211,-4.70018
64.80000,-10.80051,-4.70705
64.85001,-10.80864,-4.70532
64.90000,-10.81717,-4.70986
64.95000,-10.82571,-4.71265
65.00000,-10.83357,-4.71592
65.05000,-10.84211,-4.71563
65.10001,-10.85064,-4.71985
65.15000,-10.85864,-4.72152
65.20000,-10.86691,-4.72503
65.25000,-10.87544,-4.72472
65.30000,-10.88357,-4.72903
65.35001,-10.89184,-4.72912
65.40000,-10.90024,-4.73402
65.45000,-10.90864,-4.73348
65.50000,-10.91691,-4.73899
65.55000,-10.92517,-4.73782
65.60001,-10.93344,-4.74314
65.65000,-10.94211,-4.74343
65.70001,-10.95037,-4.74720
65.75000,-10.95864,-4.75062
65.80000,-10.96717,-4.75116
65.85001,-10.97557,-4.75565
65.90000,-10.98371,-4.75689
65.95001,-10.99211,-4.75966
66.00000,-11.00064,-4.76181
66.05000,-11.00864,-4.76544
66.10001,-11.01691,-4.76549
66.15000,-11.02531,-4.77026
66.20001,-11.03357,-4.77148
66.25000,-11.04171,-4.77308
66.30000,-11.05024,-4.77687
66.35001,-11.05864,-4.78001
66.40000,-11.06691,-4.78219
66.45001,-11.07544,-4.78541
66.50000,-11.08384,-4.78928
66.55000,-11.09224,-4.79035
66.60001,-11.10051,-4.79378
66.65000,-11.10877,-4.79617
66.70001,-11.11717,-4.79925
66.75000,-11.12544,-4.79975
66.80000,-11.13357,-4.80523
66.85001,-11.14197,-4.80372
66.90000,-11.15051,-4.81102
66.95001,-11.15864,-4.81111
67.00000,-11.16691,-4.81470
67.05000,-11.17544,-4.81612
67.10001,-11.18357,-4.82183
67.15000,-11.19184,-4.82034
67.20001,-11.20024,-4.82401
67.25000,-11.20864,-4.82792
67.30000,-11.21691,-4.82953
67.35001,-11.22531,-4.83271
67.40000,-11.23397,-4.83612
67.45001,-11.24224,-4.83860
67.50000,-11.25051,-4.83914
67.55000,-11.25904,-4.84339
67.60001,-11.26717,-4.84358
67.65000,-11.27544,-4.84548
67.70001,-11.28371,-4.84734
67.75000,-11.29197,-4.85023
67.80000,-11.30037,-4.85015
67.85001,-11.30864,-4.85838
67.90000,-11.31691,-4.85319
67.95001,-11.32557,-4.86183
68.00000,-11.33371,-4.86250
68.05000,-11.34184,-4.86598
68.10001,-11.35037,-4.86449
68.15000,-11.35877,-4.87275
68.20001,-11.36691,-4.87220
68.25000,-11.37544,-4.87735
68.30000,-11.38397,-4.87818
68.35001,-11.39197,-4.88492
68.40000,-11.40024,-4.88364
68.45001,-11.40877,-4.88992
68.50000,-11.41691,-4.89100
68.55000,-11.42504,-4.89325
68.60001,-11.43357,-4.89910
68.65000,-11.44184,-4.89959
68.70001,-11.45024,-4.90286
68.75000,-11.45864,-4.90822
68.80000,-11.46691,-4.90791
68.85001,-11.47544,-4.91399
68.90000,-11.48371,-4.91654
68.95001,-11.49197,-4.92216
69.00000,-11.50051,-4.92132
69.05000,-11.50877,-4.92966
69.10001,-11.51691,-4.92751
69.15000,-11.52530,-4.93534
69.20001,-11.53397,-4.93496
69.25000,-11.54197,-4.93977
69.30000,-11.55024,-4.94088
69.35001,-11.55877,-4.94469
69.40000,-11.56691,-4.94825
69.45001,-11.57504,-4.95009
69.50000,-11.58357,-4.95309
69.55000,-11.59197,-4.95771
69.60001,-11.60024,-4.96339
69.65000,-11.60877,-4.96367
69.70001,-11.61717,-4.97076
69.75000,-11.62544,-4.97196
69.80000,-11.63371,-4.97779
69.85001,-11.64210,-4.97866
69.90000,-11.65050,-4.98518
69.95001,-11.65891,-4.98606
70.00000,-11.66704,-4.99450
70.05000,-11.67544,-4.99175
70.10001,-11.68384,-4.99965
70.15000,-11.69197,-5.00084
70.20001,-11.70010,-5.00443
70.25000,-11.70864,-5.00559
70.30000,-11.71704,-5.01398
70.35001,-11.72517,-5.01171
70.40000,-11.73384,-5.01899
70.45001,-11.74224,-5.02156
70.50000,-11.75037,-5.02463
70.55000,-11.75890,-5.02763
70.60001,-11.76744,-5.03137
70.65000,-11.77557,-5.03439
70.70001,-11.78384,-5.03593
70.75000,-11.79210,-5.04045
70.80000,-11.80037,-5.04148
70.85001,-11.80877,-5.04734
70.90000,-11.81704,-5.04720
70.95001,-11.82544,-5.05410
71.00000,-11.83384,-5.05294
71.05000,-11.84197,-5.06094
71.10001,-11.85010,-5.05843
71.15000,-11.85864,-5.06412
71.20001,-11.86690,-5.06531
71.25000,-11.87504,-5.06966
71.30000,-11.88370,-5.07057
71.35001,-11.89224,-5.07693
71.40000,-11.90024,-5.07606
71.45001,-11.90877,-5.08139
71.50000,-11.91730,-5.08065
71.55000,-11.92544,-5.08692
71.60001,-11.93357,-5.08538
71.65000,-11.94210,-5.08898
71.70001,-11.95037,-5.08941
71.75000,-11.95850,-5.09309
71.80000,-11.96690,-5.09454
71.85001,-11.97517,-5.09724
71.90000,-11.98357,-5.10038
71.95001,-11.99184,-5.10319
72.00000,-12.00010,-5.10704
72.05000,-12.00864,-5.10687
72.10001,-12.01704,-5.11419
72.15000,-12.02517,-5.11495
72.20001,-12.03370,-5.11916
72.25000,-12.04210,-5.12159
72.30000,-12.05024,-5.12860
72.35001,-12.05864,-5.12533
72.40000,-12.06717,-5.13889
72.45001,-12.07517,-5.13235
72.50000,-12.08357,-5.14218
72.55000,-12.09210,-5.14455
72.60001,-12.10024,-5.14556
72.65000,-12.10837,-5.15272
72.70001,-12.11690,-5.15317
72.75000,-12.12544,-5.16139
72.80000,-12.13357,-5.16122
72.85001,-12.14210,-5.16895
72.90000,-12.15050,-5.16983
72.95001,-12.15890,-5.17532
73.00000,-12.16717,-5.17866
73.05000,-12.17544,-5.18409
73.10001,-12.18370,-5.18204
73.15000,-12.19210,-5.19346
73.20001,-12.20037,-5.19065
73.25000,-12.20877,-5.19869
73.30000,-12.21717,-5.19968
73.35001,-12.22544,-5.20708
73.40000,-12.23357,-5.20552
73.45001,-12.24197,-5.21355
73.50000,-12.25024,-5.21492
73.55000,-12.25850,-5.21763
73.60001,-12.26704,-5.22768
73.65000,-12.27544,-5.22376
73.70001,-12.28370,-5.23611
73.75000,-12.29210,-5.23440
73.80000,-12.30064,-5.23992
73.85001,-12.30877,-5.24399
73.90000,-12.31717,-5.24737
73.95001,-12.32557,-5.25002
74.00000,-12.33384,-5.25657
74.05000,-12.34210,-5.25768
74.10001,-12.35037,-5.26459
74.15000,-12.35877,-5.26308
74.20001,-12.36704,-5.27157
74.25000,-12.37530,-5.27193
74.30000,-12.38344,-5.27533
74.35001,-12.39210,-5.27887
74.40000,-12.40037,-5.28384
74.45001,-12.40850,-5.28722
74.50000,-12.41717,-5.29081
74.55000,-12.42557,-5.29537
74.60001,-12.43370,-5.29879
74.65000,-12.44197,-5.30042
74.70001,-12.45064,-5.30699
74.75000,-12.45864,-5.30772
74.80000,-12.46690,-5.31233
74.85001,-12.47544,-5.31484
74.90000,-12.48344,-5.31688
74.95001,-12.49184,-5.32120
75.00000,-12.50024,-5.32423
75.05000,-12.50850,-5.32846
75.10001,-12.51677,-5.32906
75.15000,-12.52504,-5.33376
75.20001,-12.53344,-5.33800
75.25000,-12.54197,-5.34085
75.30000,-12.55037,-5.34576
75.35001,-12.55864,-5.34862
75.40000,-12.56717,-5.35154
75.45001,-12.57557,-5.35508
75.50000,-12.58357,-5.35798
75.55000,-12.59197,-5.35884
75.60001,-12.60050,-5.36359
75.65000,-12.60850,-5.36578
75.70001,-12.61677,-5.36738
75.75000,-12.62544,-5.37069
75.80000,-12.63357,-5.37511
75.85001,-12.64170,-5.37573
75.90000,-12.65024,-5.37976
75.95001,-12.65877,-5.38247
76.00000,-12.66690,-5.38593
76.05000,-12.67530,-5.38770
76.10001,-12.68370,-5.39022
76.15000,-12.69210,-5.39312
76.20001,-12.70050,-5.39564
76.25000,-12.70877,-5.39885
76.30000,-12.71717,-5.40029
76.35001,-12.72544,-5.40370
76.40000,-12.73370,-5.40503
76.45001,-12.74210,-5.40762
76.50000,-12.75037,-5.41089
76.55000,-12.75864,-5.41454
76.60001,-12.76690,-5.41907
76.65000,-12.77544,-5.41386
76.70001,-12.78370,-5.42962
76.75000,-12.79184,-5.42127
76.80000,-12.80050,-5.43250
76.85001,-12.80890,-5.43068
76.90000,-12.81704,-5.43777
76.95001,-12.82557,-5.43751
77.00000,-12.83397,-5.44615
77.05000,-12.84210,-5.44036
77.10001,-12.85050,-5.45114
77.15000,-12.85890,-5.44634
77.20001,-12.86717,-5.45521
77.25000,-12.87543,-5.45194
77.30000,-12.88370,-5.45939
77.35001,-12.89210,-5.45902
77.40000,-12.90050,-5.46388
77.45001,-12.90863,-5.46628
77.50000,-12.91690,-5.46720
77.55000,-12.92543,-5.47036
77.60001,-12.93370,-5.47501
77.65000,-12.94197,-5.47616
77.70001,-12.95050,-5.47972
77.75000,-12.95890,-5.48261
77.80000,-12.96690,-5.48591
77.85001,-12.97530,-5.48806
77.90000,-12.98397,-5.49167
77.95001,-12.99197,-5.49402
78.00000,-13.00023,-5.49822
78.05000,-13.00877,-5.49813
78.10001,-13.01690,-5.50677
78.15000,-13.02517,-5.50337
78.20001,-13.03357,-5.51160
78.25000,-13.04184,-5.51095
78.30000,-13.05010,-5.51799
78.35001,-13.05850,-5.51748
78.40000,-13.06690,-5.52518
78.45001,-13.07530,-5.52458
78.50000,-13.08370,-5.53239
78.55000,-13.09183,-5.53080
78.60001,-13.10050,-5.53548
78.65000,-13.10890,-5.53836
78.70001,-13.11690,-5.54316
78.75000,-13.12530,-5.54132
78.80000,-13.13384,-5.54773
78.85001,-13.14197,-5.54783
78.90000,-13.15023,-5.55009
78.95001,-13.15877,-5.55120
79.00000,-13.16703,-5.55556
79.05000,-13.17517,-5.55537
79.10001,-13.18343,-5.55854
79.15000,-13.19183,-5.56034
79.20001,-13.20010,-5.56471
79.25000,-13.20863,-5.56555
79.30000,-13.21717,-5.57467
79.35001,-13.22557,-5.57456
79.40000,-13.23383,-5.58152
79.45001,-13.24223,-5.57927
79.50000,-13.25063,-5.58644
79.55000,-13.25890,-5.58613
79.60001,-13.26717,-5.59107
79.65000,-13.27543,-5.59076
79.70001,-13.28383,-5.59588
79.75000,-13.29210,-5.59801
79.80000,-13.30023,-5.59981
79.85001,-13.30877,-5.60015
79.90000,-13.31703,-5.60423
79.95001,-13.32530,-5.60484
80.00000,-13.33383,-5.60821
80.05000,-13.34223,-5.61117
80.10001,-13.35037,-5.61226
80.15000,-13.35877,-5.61411
80.20001,-13.36730,-5.61960
80.25000,-13.37543,-5.61851
80.30000,-13.38383,-5.62419
80.35001,-13.39223,-5.62518
80.40000,-13.40050,-5.62815
80.45001,-13.40877,-5.62812
80.50001,-13.41703,-5.63232
80.55000,-13.42543,-5.63365
80.60001,-13.43383,-5.63745
80.65000,-13.44197,-5.64007
80.70001,-13.45023,-5.64212
80.75001,-13.45877,-5.64490
80.80000,-13.46703,-5.65181
80.85001,-13.47530,-5.65402
80.90000,-13.48397,-5.65876
80.95001,-13.49223,-5.66625
81.00001,-13.50023,-5.66813
81.05000,-13.50863,-5.67170
81.10001,-13.51717,-5.67738
81.15000,-13.52530,-5.68209
81.20001,-13.53370,-5.68624
81.25001,-13.54210,-5.69162
81.30000,-13.55023,-5.69625
81.35001,-13.55850,-5.70241
81.40000,-13.56690,-5.70494
81.45001,-13.57517,-5.71134
81.50001,-13.58343,-5.71520
81.55000,-13.59183,-5.72138
81.60001,-13.60010,-5.72740
81.65000,-13.60877,-5.73024
81.70001,-13.61703,-5.73953
81.75001,-13.62517,-5.74156
81.80000,-13.63383,-5.74736
81.85001,-13.64223,-5.75264
81.90000,-13.65037,-5.75712
81.95001,-13.65877,-5.76034
82.00001,-13.66730,-5.76690
82.05000,-13.67530,-5.77083
82.10001,-13.68357,-5.77430
82.15000,-13.69210,-5.77631
82.20001,-13.70023,-5.78621
82.25001,-13.70850,-5.78548
82.30000,-13.71690,-5.79374
82.35001,-13.72543,-5.79569
82.40000,-13.73370,-5.80345
82.45001,-13.74210,-5.80669
82.50001,-13.75050,-5.81325
82.55000,-13.75877,-5.81515
82.60001,-13.76717,-5.82174
82.65000,-13.77543,-5.82502
82.70001,-13.78383,-5.82996
82.75001,-13.79223,-5.83512
82.80000,-13.80050,-5.84019
82.85001,-13.80877,-5.84189
82.90000,-13.81717,-5.84802
82.95001,-13.82543,-5.85323
83.00001,-13.83357,-5.85392
83.05000,-13.84210,-5.86022
83.10001,-13.85023,-5.86242
83.15000,-13.85837,-5.86599
83.20001,-13.86703,-5.86953
83.25001,-13.87557,-5.87723
83.30000,-13.88383,-5.87935
83.35001,-13.89223,-5.88409
83.40000,-13.90077,-5.88957
83.45001,-13.90890,-5.89189
83.50001,-13.91717,-5.89513
83.55000,-13.92557,-5.90023
83.60001,-13.93383,-5.90243
83.65000,-13.94210,-5.90648
83.70001,-13.95037,-5.90861
83.75001,-13.95877,-5.91295
83.80000,-13.96703,-5.91576
83.85001,-13.97530,-5.92050
83.90000,-13.98357,-5.92092
83.95001,-13.99210,-5.92713
84.00001,-14.00037,-5.92943
84.05000,-14.00850,-5.93332
84.10001,-14.01717,-5.93673
84.15000,-14.02557,-5.94247
84.20001,-14.03370,-5.94456
84.25001,-14.04197,-5.94780
84.30000,-14.05063,-5.95215
84.35001,-14.05863,-5.95791
84.40000,-14.06703,-5.95888
84.45001,-14.07543,-5.96605
84.50001,-14.08357,-5.96621
84.55000,-14.09183,-5.97227
84.60001,-14.10023,-5.97456
84.65000,-14.10850,-5.97958
84.70001,-14.11690,-5.98312
84.75001,-14.12530,-5.98783
84.80000,-14.13357,-5.99057
84.85001,-14.14210,-5.99655
84.90000,-14.15050,-5.99888
84.95001,-14.15863,-6.00596
85.00001,-14.16717,-6.00395
85.05000,-14.17543,-6.01366
85.10001,-14.18357,-6.01297
85.15000,-14.19197,-6.01824
85.20001,-14.20063,-6.02241
85.25001,-14.20850,-6.02765
85.30000,-14.21690,-6.02997
85.35001,-14.22556,-6.03485
85.40000,-14.23356,-6.03944
85.45001,-14.24183,-6.04117
85.50001,-14.25023,-6.04616
85.55000,-14.25877,-6.04900
85.60001,-14.26703,-6.05096
85.65000,-14.27530,-6.05339
85.70001,-14.28383,-6.05887
85.75001,-14.29210,-6.05982
85.80000,-14.30037,-6.06393
85.85001,-14.30876,-6.06783
85.90000,-14.31717,-6.06622
85.95001,-14.32556,-6.07740
86.00001,-14.33383,-6.07528
86.05000,-14.34210,-6.07923
86.10001,-14.35050,-6.08123
86.15000,-14.35863,-6.08669
86.20001,-14.36690,-6.08680
86.25001,-14.37556,-6.09364
86.30000,-14.38370,-6.09509
86.35001,-14.39183,-6.10147
86.40000,-14.40050,-6.10384
86.45001,-14.40890,-6.11288
86.50001,-14.41703,-6.11245
86.55000,-14.42543,-6.11930
86.60001,-14.43397,-6.12203
86.65000,-14.44223,-6.12602
86.70001,-14.45050,-6.13016
86.75001,-14.45890,-6.13500
86.80000,-14.46716,-6.13957
86.85001,-14.47543,-6.14071
86.90000,-14.48383,-6.14736
86.95001,-14.49210,-6.14765
87.00001,-14.50050,-6.15510
87.05000,-14.50863,-6.15757
87.10001,-14.51663,-6.15997
87.15000,-14.52543,-6.16467
87.20001,-14.53370,-6.17296
87.25001,-14.54183,-6.17670
87.30000,-14.55050,-6.18294
87.35001,-14.55890,-6.18816
87.40000,-14.56690,-6.19532
87.45001,-14.57543,-6.19693
87.50001,-14.58410,-6.20468
87.55000,-14.59210,-6.20990
87.60001,-14.60036,-6.21339
87.65000,-14.60890,-6.21811
87.70001,-14.61703,-6.22052
87.75001,-14.62530,-6.22894
87.80000,-14.63356,-6.22914
87.85001,-14.64183,-6.23774
87.90000,-14.65010,-6.23844
87.95001,-14.65850,-6.24837
88.00001,-14.66690,-6.24833
88.05000,-14.67543,-6.25772
88.10001,-14.68370,-6.26214
88.15000,-14.69183,-6.26844
88.20001,-14.70036,-6.27160
88.25001,-14.70890,-6.27807
88.30000,-14.71690,-6.28485
88.35001,-14.72543,-6.28673
88.40000,-14.73396,-6.29613
88.45001,-14.74196,-6.29975
88.50001,-14.75010,-6.30598
88.55000,-14.75876,-6.30798
88.60001,-14.76690,-6.31835
88.65000,-14.77503,-6.31730
88.70001,-14.78356,-6.32717
88.75001,-14.79196,-6.33047
88.80000,-14.80023,-6.33773
88.85001,-14.80863,-6.34029
88.90000,-14.81716,-6.34950
88.95001,-14.82543,-6.35067
89.00001,-14.83383,-6.35951
89.05000,-14.84210,-6.36125
89.10001,-14.85063,-6.36892
89.15000,-14.85890,-6.37160
89.20001,-14.86703,-6.38031
89.25001,-14.87543,-6.38054
89.30000,-14.88383,-6.39069
89.35001,-14.89196,-6.39404
89.40000,-14.90023,-6.39844
89.45001,-14.90876,-6.40464
89.50001,-14.91703,-6.41330
89.55000,-14.92530,-6.41600
89.60001,-14.93383,-6.42527
89.65000,-14.94236,-6.43155
89.70001,-14.95036,-6.43830
89.75001,-14.95876,-6.44262
89.80000,-14.96730,-6.45066
89.85001,-14.97543,-6.45527
89.90000,-14.98383,-6.46141
89.95001,-14.99223,-6.46851
90.00001,-15.00050,-6.47499
90.05000,-15.00876,-6.48141
90.06800,-15.01170,-6.48364
