Time,Extension,Load
(sec),(mm),(N)
0.00000,0.00000,0.00070
0.05000,-0.00107,0.00160
0.10000,-0.00853,-0.00270
0.15000,-0.01867,-0.00001
0.20000,-0.02907,-0.00667
0.25000,-0.03853,-0.00483
0.30000,-0.04773,-0.00733
0.35000,-0.05680,-0.00460
0.40000,-0.06547,-0.01309
0.45000,-0.07400,-0.00922
0.50000,-0.08267,-0.01302
0.55000,-0.09120,-0.01297
0.60000,-0.09960,-0.01534
0.65000,-0.10800,-0.01400
0.70000,-0.11627,-0.01801
0.75000,-0.12493,-0.01219
0.80000,-0.13333,-0.02612
0.85000,-0.14160,-0.01416
0.90000,-0.15013,-0.02458
0.95000,-0.15853,-0.02299
1.00000,-0.16667,-0.02074
1.05000,-0.17520,-0.02583
1.10000,-0.18347,-0.02750
1.15000,-0.19173,-0.02679
1.20000,-0.20000,-0.02806
1.25000,-0.20840,-0.03298
1.30000,-0.21653,-0.02909
1.35000,-0.22493,-0.03455
1.40000,-0.23333,-0.03191
1.45000,-0.24147,-0.03939
1.50000,-0.24987,-0.03278
1.55000,-0.25827,-0.04258
1.60000,-0.26653,-0.03668
1.65000,-0.27507,-0.04222
1.70000,-0.28333,-0.04150
1.75000,-0.29147,-0.04935
1.80000,-0.30000,-0.04187
1.85000,-0.30853,-0.05180
1.90000,-0.31667,-0.05222
1.95000,-0.32507,-0.05019
2.00000,-0.33360,-0.05478
2.05000,-0.34160,-0.05893
2.10000,-0.34987,-0.05825
2.15000,-0.35840,-0.06319
2.20000,-0.36640,-0.05930
2.25000,-0.37467,-0.07183
2.30000,-0.38320,-0.06543
2.35000,-0.39160,-0.07103
2.40000,-0.39973,-0.07278
2.45000,-0.40840,-0.07981
2.50000,-0.41667,-0.07420
2.55000,-0.42507,-0.08625
2.60000,-0.43347,-0.07944
2.65000,-0.44173,-0.08785
2.70000,-0.45013,-0.08841
2.75000,-0.45840,-0.09492
2.80000,-0.46653,-0.08757
2.85000,-0.47507,-0.10070
2.90000,-0.48347,-0.09387
2.95000,-0.49160,-0.10553
3.00000,-0.50000,-0.10212
3.05000,-0.50840,-0.10544
3.10000,-0.51653,-0.11086
3.15000,-0.52493,-0.11173
3.20000,-0.53360,-0.11301
3.25000,-0.54187,-0.11841
3.30000,-0.55000,-0.11862
3.35000,-0.55853,-0.12373
3.40000,-0.56693,-0.12569
3.45000,-0.57493,-0.12686
3.50000,-0.58333,-0.13214
3.55000,-0.59173,-0.13526
3.60000,-0.60013,-0.13715
3.65000,-0.60840,-0.14126
3.70000,-0.61680,-0.14328
3.75000,-0.62507,-0.14853
3.80000,-0.63333,-0.15017
3.85000,-0.64160,-0.15553
3.90000,-0.65000,-0.14667
3.95000,-0.65840,-0.17381
4.00000,-0.66667,-0.16331
4.05000,-0.67493,-0.16348
4.10000,-0.68346,-0.17693
4.15000,-0.69186,-0.18075
4.20000,-0.70000,-0.17415
4.25000,-0.70840,-0.18909
4.30000,-0.71693,-0.18939
4.35000,-0.72493,-0.19277
4.40000,-0.73333,-0.19188
4.45000,-0.74186,-0.20658
4.50000,-0.74986,-0.19741
4.55000,-0.75813,-0.21184
4.60000,-0.76666,-0.20569
4.65000,-0.77493,-0.22018
4.70000,-0.78320,-0.21731
4.75000,-0.79160,-0.23023
4.80000,-0.79986,-0.22159
4.85000,-0.80840,-0.24134
4.90000,-0.81680,-0.23071
4.95000,-0.82493,-0.25252
5.00000,-0.83360,-0.23755
5.05000,-0.84186,-0.26036
5.10000,-0.84986,-0.24923
5.15000,-0.85840,-0.26880
5.20000,-0.86680,-0.25588
5.25000,-0.87480,-0.27976
5.30000,-0.88320,-0.26666
5.35000,-0.89186,-0.28474
5.40000,-0.89986,-0.27929
5.45000,-0.90813,-0.29262
5.50000,-0.91666,-0.29124
5.55000,-0.92493,-0.29935
5.60000,-0.93320,-0.30203
5.65000,-0.94173,-0.30970
5.70000,-0.95013,-0.31377
5.75000,-0.95840,-0.31395
5.80000,-0.96666,-0.32898
5.85000,-0.97506,-0.32285
5.90000,-0.98360,-0.33960
5.95000,-0.99173,-0.33090
6.00000,-0.99986,-0.35230
6.05000,-1.00853,-0.34406
6.10000,-1.01680,-0.35934
6.15000,-1.02480,-0.35766
6.20000,-1.03320,-0.36957
6.25000,-1.04173,-0.36994
6.30000,-1.04986,-0.37848
6.35000,-1.05813,-0.38414
6.40000,-1.06680,-0.38857
6.45000,-1.07520,-0.39878
6.50000,-1.08333,-0.39615
6.55000,-1.09186,-0.41164
6.60000,-1.10026,-0.41004
6.65000,-1.10840,-0.42249
6.70000,-1.11666,-0.41969
6.75000,-1.12506,-0.43516
6.80000,-1.13333,-0.43051
6.85000,-1.14160,-0.44237
6.90000,-1.15000,-0.44092
6.95000,-1.15840,-0.45172
7.00000,-1.16666,-0.45142
7.05000,-1.17493,-0.46092
7.10000,-1.18333,-0.45949
7.15000,-1.19186,-0.47380
7.20000,-1.20000,-0.47052
7.25000,-1.20840,-0.48017
7.30000,-1.21693,-0.48516
7.35000,-1.22520,-0.49060
7.40000,-1.23333,-0.49585
7.45000,-1.24186,-0.50006
7.50000,-1.25026,-0.50737
7.55000,-1.25826,-0.51237
7.60000,-1.26666,-0.51903
7.65000,-1.27520,-0.52020
7.70000,-1.28320,-0.53299
7.75000,-1.29146,-0.53158
7.80000,-1.30000,-0.54363
7.85000,-1.30813,-0.54129
7.90000,-1.31653,-0.55733
7.95000,-1.32493,-0.55516
8.00000,-1.33320,-0.56825
8.05000,-1.34160,-0.56939
8.10000,-1.35000,-0.58144
8.15000,-1.35813,-0.58039
8.20000,-1.36666,-0.59089
8.25000,-1.37506,-0.59513
8.30000,-1.38320,-0.60377
8.35000,-1.39173,-0.60785
8.40000,-1.40013,-0.61426
8.45000,-1.40826,-0.62278
8.50000,-1.41653,-0.62650
8.55000,-1.42520,-0.63553
8.60000,-1.43320,-0.63742
8.65000,-1.44146,-0.64943
8.70000,-1.45000,-0.65112
8.75000,-1.45840,-0.65984
8.80000,-1.46666,-0.66562
8.85000,-1.47520,-0.67444
8.90000,-1.48360,-0.67892
8.95000,-1.49186,-0.68554
9.00000,-1.50026,-0.69326
9.05000,-1.50853,-0.69866
9.10000,-1.51680,-0.70686
9.15000,-1.52520,-0.71187
9.20000,-1.53320,-0.72161
9.25000,-1.54186,-0.72522
9.30000,-1.55026,-0.73615
9.35000,-1.55826,-0.74064
9.40000,-1.56666,-0.75066
9.45000,-1.57520,-0.75454
9.50000,-1.58333,-0.76488
9.55000,-1.59173,-0.77052
9.60000,-1.60026,-0.77923
9.65000,-1.60840,-0.78587
9.70000,-1.61653,-0.79292
9.75000,-1.62493,-0.80240
9.80000,-1.63333,-0.80751
9.85000,-1.64160,-0.81589
9.90000,-1.65000,-0.82528
9.95000,-1.65853,-0.83193
10.00000,-1.66680,-0.84068
10.05000,-1.67506,-0.84644
10.10000,-1.68333,-0.86051
10.15000,-1.69173,-0.86081
10.20000,-1.70000,-0.87685
10.25000,-1.70826,-0.87775
10.30000,-1.71653,-0.89336
10.35000,-1.72506,-0.89416
10.40000,-1.73333,-0.91123
10.45000,-1.74173,-0.91113
10.50000,-1.75026,-0.93102
10.55000,-1.75866,-0.93037
10.60000,-1.76666,-0.94737
10.65000,-1.77506,-0.94819
10.70000,-1.78346,-0.96437
10.75000,-1.79146,-0.96497
10.80000,-1.79986,-0.98191
10.85000,-1.80853,-0.97797
10.90000,-1.81666,-1.00124
10.95000,-1.82493,-0.99671
11.00000,-1.83333,-1.01515
11.05000,-1.84160,-1.01303
11.10000,-1.84986,-1.03267
11.15000,-1.85826,-1.03060
11.20000,-1.86666,-1.04971
11.25000,-1.87506,-1.04713
11.30000,-1.88346,-1.06818
11.35000,-1.89160,-1.06493
11.40000,-1.90026,-1.08461
11.45000,-1.90853,-1.08419
11.50000,-1.91653,-1.10264
11.55000,-1.92506,-1.10247
11.60000,-1.93360,-1.11894
11.65000,-1.94160,-1.12287
11.70000,-1.94986,-1.13507
11.75000,-1.95840,-1.14172
11.80000,-1.96640,-1.15063
11.85000,-1.97480,-1.16133
11.90000,-1.98333,-1.16873
11.95000,-1.99173,-1.18021
12.00000,-2.00000,-1.18174
12.05000,-2.00840,-1.20086
12.10000,-2.01680,-1.20167
12.15000,-2.02506,-1.21762
12.20000,-2.03346,-1.21699
12.25000,-2.04173,-1.23827
12.30000,-2.05013,-1.23649
12.35000,-2.05853,-1.25330
12.40000,-2.06666,-1.25634
12.45000,-2.07520,-1.27269
12.50000,-2.08346,-1.27384
12.55000,-2.09159,-1.28624
12.60000,-2.09999,-1.29359
12.65000,-2.10839,-1.30455
12.70000,-2.11653,-1.31092
12.75000,-2.12493,-1.31882
12.80000,-2.13346,-1.33613
12.85000,-2.14173,-1.33705
12.90000,-2.14999,-1.34969
12.95000,-2.15853,-1.35828
13.00000,-2.16693,-1.36981
13.05000,-2.17506,-1.37349
13.10000,-2.18346,-1.38585
13.15000,-2.19186,-1.39285
13.20000,-2.20013,-1.40121
13.25000,-2.20839,-1.41083
13.30000,-2.21666,-1.41938
13.35000,-2.22506,-1.43301
13.40000,-2.23333,-1.43382
13.45000,-2.24159,-1.45564
13.50000,-2.24999,-1.44984
13.55000,-2.25839,-1.47548
13.60000,-2.26666,-1.46870
13.65000,-2.27493,-1.49222
13.70000,-2.28359,-1.48741
13.75000,-2.29173,-1.51193
13.80000,-2.29999,-1.50720
13.85000,-2.30839,-1.52653
13.90000,-2.31693,-1.52879
13.95000,-2.32493,-1.53449
14.00000,-2.33333,-1.51534
14.05000,-2.34186,-1.52678
14.10000,-2.34999,-1.54485
14.15000,-2.35826,-1.55461
14.20000,-2.36666,-1.56035
14.25000,-2.37493,-1.56825
14.30000,-2.38319,-1.57961
14.35000,-2.39159,-1.57922
14.40000,-2.39999,-1.59205
14.45000,-2.40839,-1.59796
14.50000,-2.41679,-1.60882
14.55000,-2.42493,-1.60987
14.60000,-2.43359,-1.62270
14.65000,-2.44186,-1.62709
14.70000,-2.44986,-1.63087
14.75000,-2.45826,-1.63604
14.80000,-2.46666,-1.64129
14.85000,-2.47479,-1.65407
14.90000,-2.48319,-1.65388
14.95000,-2.49186,-1.67186
15.00000,-2.49986,-1.67529
15.05000,-2.50813,-1.69453
15.10000,-2.51679,-1.69455
15.15000,-2.52506,-1.71509
15.20000,-2.53333,-1.71630
15.25000,-2.54173,-1.73393
15.30000,-2.55013,-1.73964
15.35000,-2.55839,-1.74941
15.40000,-2.56679,-1.75841
15.45000,-2.57506,-1.77241
15.50000,-2.58359,-1.77880
15.55000,-2.59186,-1.78546
15.60000,-2.59999,-1.80369
15.65000,-2.60839,-1.80113
15.70000,-2.61679,-1.82622
15.75000,-2.62493,-1.81552
15.80000,-2.63319,-1.84680
15.85000,-2.64173,-1.83943
15.90000,-2.64986,-1.86183
15.95000,-2.65826,-1.85816
16.00000,-2.66693,-1.88103
16.05000,-2.67506,-1.87919
16.10000,-2.68333,-1.89802
16.15000,-2.69173,-1.89635
16.20000,-2.70013,-1.91663
16.25000,-2.70839,-1.91608
16.30000,-2.71679,-1.93297
16.35000,-2.72519,-1.93597
16.40000,-2.73333,-1.95037
16.45000,-2.74159,-1.95508
16.50000,-2.74999,-1.96782
16.55000,-2.75839,-1.97664
16.60000,-2.76666,-1.98419
16.65000,-2.77493,-1.99822
16.70000,-2.78319,-1.99959
16.75000,-2.79173,-2.01713
16.80000,-2.80013,-2.01799
16.85000,-2.80826,-2.03856
16.90000,-2.81679,-2.02661
16.95000,-2.82519,-2.05844
17.00000,-2.83333,-2.04077
17.05000,-2.84186,-2.06348
17.10000,-2.85026,-2.04939
17.15000,-2.85839,-2.06864
17.20000,-2.86666,-2.05870
17.25000,-2.87519,-2.07256
17.30000,-2.88319,-2.05647
17.35000,-2.89146,-2.07815
17.40000,-2.89999,-2.07121
17.45000,-2.90826,-2.09447
17.50000,-2.91653,-2.09080
17.55000,-2.92493,-2.10611
17.60000,-2.93319,-2.11154
17.65000,-2.94173,-2.11242
17.70000,-2.94999,-2.12245
17.75000,-2.95826,-2.12788
17.80000,-2.96679,-2.13401
17.85000,-2.97506,-2.13989
17.90000,-2.98333,-2.14543
17.95000,-2.99186,-2.14863
18.00000,-3.00026,-2.14697
18.05000,-3.00813,-2.14216
18.10000,-3.01653,-2.14968
18.15000,-3.02519,-2.16108
18.20000,-3.03306,-2.16826
18.25000,-3.04133,-2.17041
18.30000,-3.04999,-2.18318
18.35000,-3.05826,-2.18538
18.40000,-3.06653,-2.18645
18.45000,-3.07506,-2.18523
18.50000,-3.08346,-2.19188
18.55000,-3.09173,-2.20354
18.60000,-3.10013,-2.21938
18.65000,-3.10839,-2.22960
18.70000,-3.11679,-2.24388
18.75000,-3.12506,-2.25183
18.80000,-3.13319,-2.26391
18.85000,-3.14173,-2.27336
18.90000,-3.15013,-2.28541
18.95000,-3.15826,-2.29346
19.00000,-3.16666,-2.30569
19.05000,-3.17506,-2.31646
19.10000,-3.18319,-2.31896
19.15000,-3.19159,-2.33815
19.20000,-3.20026,-2.34194
19.25000,-3.20853,-2.35380
19.30000,-3.21666,-2.36331
19.35000,-3.22519,-2.37300
19.40000,-3.23359,-2.37859
19.45000,-3.24173,-2.39232
19.50000,-3.25013,-2.39937
19.55000,-3.25853,-2.40869
19.60000,-3.26679,-2.41120
19.65000,-3.27506,-2.43622
19.70000,-3.28333,-2.42443
19.75000,-3.29186,-2.45067
19.80000,-3.30013,-2.44420
19.85000,-3.30826,-2.46895
19.90000,-3.31666,-2.46253
19.95000,-3.32519,-2.48551
20.00000,-3.33333,-2.48013
20.05000,-3.34159,-2.50254
20.10000,-3.35026,-2.49709
20.15000,-3.35866,-2.52115
20.20000,-3.36666,-2.51178
20.25000,-3.37519,-2.53813
20.30000,-3.38359,-2.53510
20.35000,-3.39173,-2.54833
20.40000,-3.39999,-2.55293
20.45000,-3.40852,-2.56691
20.50000,-3.41666,-2.56918
20.55000,-3.42493,-2.58265
20.60000,-3.43332,-2.58652
20.65000,-3.44146,-2.60104
20.70000,-3.44986,-2.60029
20.75000,-3.45826,-2.61582
20.80000,-3.46652,-2.62114
20.85000,-3.47492,-2.63103
20.90000,-3.48332,-2.63919
20.95000,-3.49159,-2.64481
21.00000,-3.50012,-2.65763
21.05000,-3.50839,-2.66269
21.10000,-3.51652,-2.67438
21.15000,-3.52506,-2.67603
21.20000,-3.53359,-2.68865
21.25000,-3.54146,-2.69594
21.30000,-3.54986,-2.70304
21.35000,-3.55852,-2.71206
21.40000,-3.56652,-2.71879
21.45000,-3.57479,-2.72628
21.50000,-3.58332,-2.73672
21.55000,-3.59186,-2.74395
21.60000,-3.59999,-2.75407
21.65000,-3.60839,-2.75540
21.70000,-3.61679,-2.77276
21.75000,-3.62506,-2.77213
21.80000,-3.63346,-2.78586
21.85000,-3.64172,-2.79013
21.90000,-3.65012,-2.79985
21.95000,-3.65852,-2.81128
22.00000,-3.66666,-2.80971
22.05000,-3.67519,-2.82511
22.10000,-3.68359,-2.83208
22.15000,-3.69159,-2.83988
22.20000,-3.69986,-2.84516
22.25000,-3.70839,-2.85450
22.30000,-3.71652,-2.86125
22.35000,-3.72479,-2.87333
22.40000,-3.73359,-2.87601
22.45000,-3.74186,-2.89062
22.50000,-3.74999,-2.89270
22.55000,-3.75852,-2.90724
22.60000,-3.76692,-2.91089
22.65000,-3.77506,-2.92089
22.70000,-3.78332,-2.92649
22.75000,-3.79172,-2.93966
22.80000,-3.79999,-2.94269
22.85000,-3.80826,-2.94911
22.90000,-3.81666,-2.96412
22.95000,-3.82506,-2.96921
23.00000,-3.83332,-2.97563
23.05000,-3.84159,-2.98140
23.10000,-3.84986,-2.99647
23.15000,-3.85839,-2.99459
23.20000,-3.86666,-3.01042
23.25000,-3.87492,-3.01673
23.30000,-3.88359,-3.01943
23.35000,-3.89186,-3.03461
23.40000,-3.89999,-3.04319
23.45000,-3.90839,-3.03476
23.50000,-3.91692,-3.06144
23.55000,-3.92506,-3.05869
23.60000,-3.93332,-3.07139
23.65000,-3.94186,-3.07259
23.70000,-3.94986,-3.08865
23.75000,-3.95826,-3.08685
23.80000,-3.96666,-3.10178
23.85000,-3.97492,-3.10006
23.90000,-3.98319,-3.12146
23.95000,-3.99159,-3.11551
24.00000,-3.99999,-3.13220
24.05000,-4.00852,-3.13848
24.10000,-4.01679,-3.13883
24.15000,-4.02492,-3.15509
24.20000,-4.03346,-3.15901
24.25000,-4.04172,-3.16333
24.30000,-4.04986,-3.17519
24.35000,-4.05839,-3.18213
24.40000,-4.06679,-3.17776
24.45000,-4.07492,-3.20463
24.50000,-4.08319,-3.19289
24.55000,-4.09172,-3.21946
24.60000,-4.09986,-3.20092
24.65000,-4.10799,-3.23336
24.70000,-4.11666,-3.22209
24.75000,-4.12492,-3.24351
24.80000,-4.13332,-3.23485
24.85000,-4.14172,-3.25606
24.90000,-4.15012,-3.25298
24.95000,-4.15839,-3.26791
25.00000,-4.16679,-3.26475
25.05000,-4.17506,-3.28192
25.10000,-4.18346,-3.27955
25.15000,-4.19186,-3.29531
25.20000,-4.19999,-3.29081
25.25000,-4.20839,-3.30791
25.30000,-4.21679,-3.30394
25.35000,-4.22492,-3.32346
25.40000,-4.23332,-3.31279
25.45000,-4.24172,-3.33572
25.50000,-4.24986,-3.32931
25.55000,-4.25826,-3.34664
25.60000,-4.26692,-3.34011
25.65000,-4.27519,-3.36240
25.70000,-4.28332,-3.35085
25.75000,-4.29186,-3.37130
25.80000,-4.30026,-3.36399
25.85000,-4.30839,-3.38584
25.90000,-4.31679,-3.37176
25.95000,-4.32519,-3.39993
26.00000,-4.33346,-3.38216
26.05000,-4.34159,-3.40763
26.10000,-4.34999,-3.40040
26.15000,-4.35839,-3.41995
26.20000,-4.36666,-3.40376
26.25000,-4.37492,-3.43771
26.30000,-4.38319,-3.41523
26.35000,-4.39186,-3.44407
26.40000,-4.39999,-3.43121
26.45000,-4.40826,-3.45277
26.50000,-4.41692,-3.44884
26.55000,-4.42519,-3.45663
26.60000,-4.43319,-3.46320
26.65000,-4.44159,-3.46777
26.70000,-4.45012,-3.47015
26.75000,-4.45826,-3.48351
26.80000,-4.46652,-3.47839
26.85000,-4.47506,-3.49367
26.90000,-4.48332,-3.49050
26.95000,-4.49159,-3.50349
27.00000,-4.49999,-3.50049
27.05000,-4.50812,-3.51954
27.10000,-4.51652,-3.50282
27.15000,-4.52492,-3.52901
27.20000,-4.53319,-3.52186
27.25000,-4.54159,-3.53409
27.30000,-4.55012,-3.53276
27.35000,-4.55826,-3.54710
27.40000,-4.56679,-3.54152
27.45000,-4.57519,-3.55816
27.50000,-4.58319,-3.55387
27.55000,-4.59172,-3.56271
27.60000,-4.60026,-3.57150
27.65000,-4.60812,-3.57010
27.70000,-4.61652,-3.57836
27.75000,-4.62506,-3.58115
27.80000,-4.63306,-3.59205
27.85000,-4.64132,-3.58669
27.90000,-4.64999,-3.60594
27.95000,-4.65839,-3.59493
28.00000,-4.66666,-3.61687
28.05000,-4.67506,-3.60846
28.10000,-4.68332,-3.62198
28.15000,-4.69172,-3.62247
28.20000,-4.70012,-3.63229
28.25000,-4.70839,-3.62920
28.30000,-4.71692,-3.64119
28.35000,-4.72519,-3.64381
28.40000,-4.73332,-3.64665
28.45000,-4.74172,-3.65509
28.50000,-4.75012,-3.65280
28.55000,-4.75826,-3.66605
28.60000,-4.76666,-3.66381
28.65000,-4.77506,-3.67041
28.70000,-4.78332,-3.67436
28.75000,-4.79159,-3.68053
28.80000,-4.80025,-3.68026
28.85000,-4.80852,-3.68715
28.90000,-4.81666,-3.68944
28.95000,-4.82506,-3.69498
29.00000,-4.83359,-3.69956
29.05000,-4.84172,-3.69958
29.10000,-4.84999,-3.70850
29.15000,-4.85852,-3.71160
29.20000,-4.86679,-3.71312
29.25000,-4.87506,-3.71861
29.30000,-4.88332,-3.72427
29.35000,-4.89172,-3.72556
29.40000,-4.89999,-3.73148
29.45000,-4.90825,-3.73490
29.50000,-4.91652,-3.73805
29.55000,-4.92505,-3.74834
29.60000,-4.93332,-3.74298
29.65000,-4.94159,-3.75586
29.70000,-4.95012,-3.75445
29.75000,-4.95852,-3.76236
29.80000,-4.96665,-3.76374
29.85000,-4.97505,-3.76671
29.90000,-4.98359,-3.77381
29.95000,-4.99172,-3.77706
30.00000,-4.99999,-3.77878
30.05000,-5.00839,-3.78284
30.10000,-5.01652,-3.78969
30.15000,-5.02479,-3.79007
30.20000,-5.03332,-3.79514
30.25000,-5.04145,-3.79599
30.30000,-5.04985,-3.80676
30.35000,-5.05825,-3.80169
30.40000,-5.06652,-3.81504
30.45000,-5.07519,-3.80659
30.50000,-5.08345,-3.82541
30.55000,-5.09159,-3.81536
30.60000,-5.10012,-3.82958
30.65000,-5.10839,-3.82300
30.70000,-5.11652,-3.83627
30.75000,-5.12505,-3.83266
30.80000,-5.13359,-3.84111
30.85000,-5.14159,-3.83969
30.90000,-5.14985,-3.84688
30.95000,-5.15852,-3.84805
31.00000,-5.16652,-3.85161
31.05000,-5.17479,-3.85280
31.10000,-5.18332,-3.85821
31.15000,-5.19172,-3.86047
31.20000,-5.19985,-3.86623
31.25000,-5.20839,-3.86045
31.30000,-5.21679,-3.87889
31.35000,-5.22519,-3.86828
31.40000,-5.23345,-3.88209
31.45000,-5.24172,-3.87834
31.50000,-5.25025,-3.88573
31.55000,-5.25839,-3.88619
31.60000,-5.26652,-3.89314
31.65000,-5.27519,-3.88920
31.70000,-5.28345,-3.90163
31.75000,-5.29159,-3.89676
31.80000,-5.29999,-3.90514
31.85000,-5.30839,-3.90274
31.90000,-5.31652,-3.91087
31.95000,-5.32479,-3.91162
32.00000,-5.33345,-3.91510
32.05000,-5.34185,-3.91568
32.10000,-5.34999,-3.92598
32.15000,-5.35839,-3.92137
32.20000,-5.36692,-3.92762
32.25000,-5.37505,-3.93045
32.30000,-5.38345,-3.93327
32.35000,-5.39185,-3.93461
32.40000,-5.40012,-3.93842
32.45000,-5.40839,-3.94141
32.50000,-5.41665,-3.94284
32.55000,-5.42505,-3.94547
32.60000,-5.43332,-3.94807
32.65000,-5.44159,-3.95143
32.70000,-5.44999,-3.95033
32.75000,-5.45852,-3.95850
32.80000,-5.46665,-3.95633
32.85000,-5.47492,-3.95948
32.90000,-5.48345,-3.96177
32.95000,-5.49172,-3.96640
33.00000,-5.49985,-3.96421
33.05000,-5.50839,-3.97016
33.10000,-5.51692,-3.96985
33.15000,-5.52505,-3.97552
33.20000,-5.53319,-3.97162
33.25000,-5.54172,-3.98005
33.30000,-5.54999,-3.97498
33.35000,-5.55825,-3.98410
33.40000,-5.56665,-3.97788
33.45000,-5.57492,-3.98599
33.50000,-5.58319,-3.98821
33.55000,-5.59159,-3.98430
33.60000,-5.59985,-3.99139
33.65000,-5.60839,-3.99093
33.70000,-5.61679,-3.99368
33.75000,-5.62492,-3.99236
33.80000,-5.63345,-3.99885
33.85000,-5.64185,-3.99626
33.90000,-5.64999,-4.00256
33.95000,-5.65839,-3.99780
34.00000,-5.66692,-4.00505
34.05000,-5.67492,-4.00173
34.10000,-5.68319,-4.00910
34.15000,-5.69185,-4.00168
34.20000,-5.69985,-4.01032
34.25000,-5.70799,-4.00696
34.30000,-5.71665,-4.01491
34.35000,-5.72505,-4.00320
34.40000,-5.73332,-4.02191
34.45000,-5.74159,-4.00725
34.50000,-5.75012,-4.02321
34.55000,-5.75839,-4.01247
34.60000,-5.76665,-4.02282
34.65000,-5.77492,-4.01979
34.70000,-5.78345,-4.02536
34.75000,-5.79185,-4.02246
34.80000,-5.79999,-4.02884
34.85000,-5.80839,-4.02776
34.90000,-5.81692,-4.03027
34.95000,-5.82492,-4.02944
35.00000,-5.83332,-4.02947
35.05000,-5.84172,-4.03505
35.10000,-5.84999,-4.03404
35.15000,-5.85825,-4.03243
35.20000,-5.86679,-4.03732
35.25000,-5.87519,-4.04007
35.30000,-5.88345,-4.03693
35.35000,-5.89185,-4.04064
35.40000,-5.90025,-4.04177
35.45000,-5.90852,-4.04260
35.50000,-5.91679,-4.04307
35.55000,-5.92519,-4.04497
35.60000,-5.93345,-4.04453
35.65000,-5.94172,-4.05078
35.70000,-5.95012,-4.04471
35.75000,-5.95839,-4.05003
35.80000,-5.96665,-4.04991
35.85000,-5.97479,-4.05273
35.90000,-5.98319,-4.04953
35.95000,-5.99172,-4.05347
36.00000,-5.99999,-4.05574
36.05000,-6.00825,-4.05286
36.10000,-6.01692,-4.05910
36.15000,-6.02519,-4.05476
36.20000,-6.03332,-4.06196
36.25000,-6.04172,-4.05478
36.30000,-6.05025,-4.06488
36.35000,-6.05825,-4.05578
36.40000,-6.06665,-4.06661
36.45000,-6.07505,-4.05662
36.50000,-6.08332,-4.07196
36.55000,-6.09159,-4.05463
36.60000,-6.09998,-4.07304
36.65000,-6.10825,-4.05952
36.70000,-6.11652,-4.07210
36.75000,-6.12492,-4.06262
36.80000,-6.13332,-4.07401
36.85000,-6.14185,-4.06566
36.90000,-6.15012,-4.07783
36.95000,-6.15825,-4.06835
37.00000,-6.16679,-4.07625
37.05000,-6.17519,-4.07465
37.10000,-6.18319,-4.07836
37.15000,-6.19172,-4.07787
37.20000,-6.20025,-4.07790
37.25000,-6.20812,-4.08605
37.30000,-6.21652,-4.06911
37.35000,-6.22505,-4.09628
37.40000,-6.23318,-4.07180
37.45000,-6.24145,-4.08911
37.50000,-6.24998,-4.08046
37.55000,-6.25825,-4.09230
37.60000,-6.26652,-4.08278
37.65000,-6.27492,-4.09331
37.70000,-6.28345,-4.08335
37.75000,-6.29185,-4.10026
37.80000,-6.30025,-4.08186
37.85000,-6.30852,-4.10223
37.90000,-6.31678,-4.08486
37.95000,-6.32518,-4.09814
38.00000,-6.33318,-4.09456
38.05000,-6.34172,-4.09158
38.10000,-6.35012,-4.09898
38.15000,-6.35812,-4.09472
38.20000,-6.36652,-4.09769
38.25000,-6.37505,-4.09422
38.30000,-6.38318,-4.10377
38.35000,-6.39158,-4.09563
38.40000,-6.40025,-4.10284
38.45000,-6.40838,-4.10004
38.50000,-6.41665,-4.10606
38.55000,-6.42518,-4.09594
38.60000,-6.43358,-4.11507
38.65000,-6.44172,-4.08797
38.70000,-6.45012,-4.12469
38.75000,-6.45852,-4.08970
38.80000,-6.46678,-4.12090
38.85000,-6.47505,-4.09467
38.90000,-6.48332,-4.12539
38.95000,-6.49172,-4.09041
39.00000,-6.50012,-4.12926
39.05000,-6.50825,-4.09527
39.10000,-6.51665,-4.12714
39.15000,-6.52505,-4.09833
39.20000,-6.53332,-4.12962
39.25000,-6.54172,-4.10055
39.30000,-6.55025,-4.12994
39.35000,-6.55865,-4.10696
39.40000,-6.56665,-4.12408
39.45000,-6.57518,-4.12378
39.50000,-6.58358,-4.11157
39.55000,-6.59158,-4.12865
39.60000,-6.59985,-4.11920
39.65000,-6.60852,-4.12198
39.70000,-6.61652,-4.12245
39.75000,-6.62492,-4.12287
39.80000,-6.63332,-4.12341
39.85000,-6.64158,-4.12438
39.90000,-6.64985,-4.12167
39.95000,-6.65812,-4.13011
40.00000,-6.66652,-4.12260
40.05000,-6.67505,-4.13376
40.10000,-6.68332,-4.12435
40.15000,-6.69158,-4.13564
40.20000,-6.70012,-4.12996
40.25000,-6.70852,-4.13363
40.30000,-6.71652,-4.13133
40.35000,-6.72505,-4.13458
40.40000,-6.73358,-4.13728
40.45000,-6.74145,-4.13566
40.50000,-6.74985,-4.13403
40.55000,-6.75838,-4.14341
40.60000,-6.76638,-4.13590
40.65000,-6.77478,-4.14149
40.70000,-6.78332,-4.14029
40.75000,-6.79172,-4.14510
40.80000,-6.79998,-4.14476
40.85000,-6.80838,-4.14558
40.90000,-6.81678,-4.14602
40.95000,-6.82505,-4.15292
41.00000,-6.83345,-4.14777
41.05000,-6.84172,-4.15300
41.10000,-6.85012,-4.15081
41.15000,-6.85852,-4.15735
41.20000,-6.86652,-4.15323
41.25000,-6.87518,-4.15762
41.30000,-6.88345,-4.15593
41.35000,-6.89158,-4.16356
41.40000,-6.89998,-4.15764
41.45000,-6.90838,-4.16305
41.50000,-6.91652,-4.16228
41.55000,-6.92492,-4.16656
41.60000,-6.93358,-4.16329
41.65000,-6.94172,-4.17041
41.70000,-6.94998,-4.16422
41.75000,-6.95852,-4.17416
41.80000,-6.96692,-4.16859
41.85000,-6.97492,-4.17422
41.90000,-6.98332,-4.17057
41.95000,-6.99185,-4.18035
42.00000,-7.00012,-4.17240
42.05000,-7.00838,-4.18205
42.10000,-7.01665,-4.17478
42.15000,-7.02505,-4.18470
42.20000,-7.03332,-4.17898
42.25000,-7.04158,-4.18631
42.30000,-7.04998,-4.17925
42.35000,-7.05852,-4.19043
42.40000,-7.06678,-4.18317
42.45000,-7.07505,-4.19185
42.50000,-7.08358,-4.18344
42.55000,-7.09185,-4.19632
42.60000,-7.09985,-4.18701
42.65000,-7.10838,-4.19602
42.70000,-7.11692,-4.19051
42.75000,-7.12505,-4.19967
42.80000,-7.13345,-4.19306
42.85000,-7.14185,-4.20125
42.90000,-7.14998,-4.19408
42.95000,-7.15825,-4.20277
43.00000,-7.16665,-4.19675
43.05000,-7.17492,-4.20184
43.10000,-7.18318,-4.19687
43.15000,-7.19158,-4.20536
43.20000,-7.19998,-4.20070
43.25000,-7.20838,-4.20473
43.30000,-7.21678,-4.20422
43.35000,-7.22492,-4.20830
43.40000,-7.23345,-4.20625
43.45000,-7.24185,-4.20821
43.50000,-7.24998,-4.20781
43.55000,-7.25838,-4.21351
43.60000,-7.26692,-4.20870
43.65000,-7.27492,-4.21129
43.70000,-7.28332,-4.21313
43.75000,-7.29185,-4.21337
43.80000,-7.29985,-4.21416
43.85000,-7.30798,-4.21329
43.90000,-7.31665,-4.21698
43.95000,-7.32492,-4.21697
44.00000,-7.33305,-4.21753
44.05000,-7.34158,-4.21593
44.10000,-7.34998,-4.22239
44.15000,-7.35838,-4.21993
44.20000,-7.36665,-4.22370
44.25000,-7.37505,-4.22010
44.30000,-7.38345,-4.22610
44.35000,-7.39185,-4.22388
44.40000,-7.39998,-4.22918
44.45000,-7.40838,-4.22315
44.50000,-7.41678,-4.23179
44.55000,-7.42492,-4.22784
44.60000,-7.43318,-4.23123
44.65000,-7.44172,-4.22850
44.70000,-7.44985,-4.23363
44.75000,-7.45825,-4.23041
44.80000,-7.46692,-4.23436
44.85000,-7.47505,-4.22987
44.90000,-7.48332,-4.23469
44.95000,-7.49172,-4.23494
45.00000,-7.50025,-4.23530
45.05000,-7.50838,-4.23583
45.10000,-7.51678,-4.23772
45.15000,-7.52518,-4.23871
45.20000,-7.53332,-4.23909
45.25000,-7.54158,-4.23908
45.30000,-7.54998,-4.24046
45.35000,-7.55851,-4.24193
45.40000,-7.56665,-4.24243
45.45000,-7.57505,-4.24140
45.50000,-7.58332,-4.24374
45.55000,-7.59171,-4.24433
45.60000,-7.60011,-4.24717
45.65000,-7.60825,-4.24488
45.70000,-7.61691,-4.24705
45.75000,-7.62518,-4.24823
45.80000,-7.63331,-4.24860
45.85000,-7.64185,-4.24740
45.90000,-7.65025,-4.25020
45.95000,-7.65838,-4.24809
46.00000,-7.66665,-4.24904
46.05000,-7.67518,-4.24817
46.10000,-7.68318,-4.24798
46.15000,-7.69145,-4.24762
46.20000,-7.69998,-4.24963
46.25000,-7.70825,-4.24624
46.30000,-7.71651,-4.24896
46.35000,-7.72491,-4.24770
46.40000,-7.73331,-4.25086
46.45000,-7.74171,-4.24478
46.50000,-7.74998,-4.25201
46.55000,-7.75811,-4.24268
46.60000,-7.76678,-4.25120
46.65000,-7.77505,-4.24145
46.70000,-7.78331,-4.25080
46.75000,-7.79185,-4.23940
46.80000,-7.80025,-4.24907
46.85000,-7.80811,-4.23885
46.90000,-7.81651,-4.24329
46.95000,-7.82505,-4.23662
47.00000,-7.83318,-4.23980
47.05000,-7.84145,-4.23179
47.10000,-7.85011,-4.23766
47.15000,-7.85825,-4.23181
47.20000,-7.86651,-4.23425
47.25000,-7.87505,-4.22572
47.30000,-7.88345,-4.23524
47.35000,-7.89171,-4.22181
47.40000,-7.90011,-4.23255
47.45000,-7.90838,-4.22049
47.50000,-7.91678,-4.22594
47.55000,-7.92518,-4.21942
47.60000,-7.93331,-4.22489
47.65000,-7.94185,-4.21444
47.70000,-7.95011,-4.22167
47.75000,-7.95825,-4.21486
47.80000,-7.96665,-4.21590
47.85000,-7.97505,-4.20956
47.90000,-7.98331,-4.21541
47.95000,-7.99158,-4.20602
48.00000,-8.00025,-4.20841
48.05000,-8.00838,-4.20327
48.10000,-8.01665,-4.20570
48.15000,-8.02505,-4.19669
48.20000,-8.03358,-4.19975
48.25000,-8.04171,-4.19677
48.30000,-8.05011,-4.19753
48.35000,-8.05851,-4.19390
48.40000,-8.06678,-4.19224
48.45000,-8.07505,-4.19313
48.50000,-8.08345,-4.19245
48.55000,-8.09171,-4.19190
48.60000,-8.09998,-4.19009
48.65000,-8.10838,-4.18993
48.70000,-8.11665,-4.19265
48.75000,-8.12505,-4.18946
48.80000,-8.13331,-4.19010
48.85000,-8.14171,-4.19120
48.90000,-8.15025,-4.19051
48.95000,-8.15851,-4.19066
49.00000,-8.16665,-4.18846
49.05000,-8.17518,-4.19148
49.10000,-8.18371,-4.18933
49.15000,-8.19158,-4.19238
49.20000,-8.19998,-4.18663
49.25000,-8.20851,-4.19112
49.30000,-8.21651,-4.19098
49.35000,-8.22478,-4.18966
49.40000,-8.23331,-4.18600
49.45000,-8.24158,-4.19455
49.50000,-8.24985,-4.18973
49.55000,-8.25811,-4.19126
49.60000,-8.26665,-4.18980
49.65000,-8.27505,-4.19682
49.70000,-8.28331,-4.19069
49.75000,-8.29158,-4.19763
49.80000,-8.30025,-4.18911
49.85000,-8.30851,-4.20220
49.90000,-8.31665,-4.19297
49.95000,-8.32505,-4.19729
50.00000,-8.33358,-4.19481
50.05000,-8.34158,-4.20319
50.10000,-8.34985,-4.19281
50.15000,-8.35838,-4.20337
50.20000,-8.36638,-4.19359
50.25000,-8.37478,-4.20579
50.30000,-8.38345,-4.19810
50.35000,-8.39171,-4.20527
50.40000,-8.39998,-4.19902
50.45000,-8.40838,-4.21003
50.50000,-8.41678,-4.19787
50.55000,-8.42491,-4.20929
50.60000,-8.43331,-4.20167
50.65000,-8.44158,-4.21160
50.70000,-8.45011,-4.20123
50.75000,-8.45851,-4.21520
50.80000,-8.46665,-4.20450
50.85000,-8.47505,-4.21575
50.90000,-8.48345,-4.20453
50.95000,-8.49145,-4.21762
51.00000,-8.49985,-4.20729
51.05000,-8.50838,-4.21595
51.10000,-8.51651,-4.21008
51.15000,-8.52478,-4.21811
51.20000,-8.53345,-4.21039
51.25000,-8.54185,-4.22234
51.30000,-8.54998,-4.21368
51.35000,-8.55851,-4.22353
51.40000,-8.56691,-4.21596
51.45000,-8.57505,-4.22722
51.50000,-8.58345,-4.21802
51.55000,-8.59198,-4.22937
51.60000,-8.60011,-4.22299
51.65000,-8.60825,-4.22744
51.70000,-8.61665,-4.22705
51.75000,-8.62518,-4.22753
51.80000,-8.63345,-4.23038
51.85000,-8.64158,-4.23095
51.90000,-8.64998,-4.22872
51.95000,-8.65838,-4.23467
52.00000,-8.66665,-4.23180
52.05000,-8.67491,-4.23534
52.10000,-8.68345,-4.23251
52.15000,-8.69185,-4.23680
52.20000,-8.69998,-4.23588
52.25000,-8.70838,-4.23866
52.30000,-8.71691,-4.23477
52.35000,-8.72505,-4.24111
52.40000,-8.73331,-4.23679
52.45000,-8.74185,-4.24147
52.50000,-8.74985,-4.23812
52.55000,-8.75825,-4.24388
52.60000,-8.76665,-4.23908
52.65000,-8.77491,-4.24727
52.70000,-8.78318,-4.24193
52.75000,-8.79158,-4.24627
52.80000,-8.79998,-4.24732
52.85000,-8.80838,-4.25091
52.90000,-8.81678,-4.24774
52.95000,-8.82491,-4.25198
53.00000,-8.83345,-4.25301
53.05000,-8.84171,-4.25302
53.10000,-8.84985,-4.25092
53.15000,-8.85838,-4.25790
53.20000,-8.86691,-4.25170
53.25000,-8.87478,-4.26143
53.30000,-8.88318,-4.25388
53.35000,-8.89185,-4.26042
53.40000,-8.89985,-4.25880
53.45000,-8.90811,-4.26376
53.50000,-8.91665,-4.25927
53.55000,-8.92491,-4.26831
53.60000,-8.93318,-4.26005
53.65000,-8.94171,-4.27446
53.70000,-8.95011,-4.26423
53.75000,-8.95838,-4.27222
53.80000,-8.96678,-4.27440
53.85000,-8.97504,-4.27241
53.90000,-8.98358,-4.27613
53.95000,-8.99184,-4.27144
54.00000,-8.99998,-4.28317
54.05000,-9.00838,-4.27165
54.10000,-9.01678,-4.27941
54.15000,-9.02478,-4.27696
54.20000,-9.03318,-4.27958
54.25000,-9.04184,-4.27991
54.30000,-9.04984,-4.28232
54.35000,-9.05824,-4.28043
54.40000,-9.06691,-4.28744
54.45000,-9.07518,-4.28222
54.50000,-9.08331,-4.28687
54.55000,-9.09171,-4.28384
54.60000,-9.10024,-4.29297
54.65000,-9.10838,-4.28700
54.70000,-9.11691,-4.29112
54.75000,-9.12531,-4.28928
54.80000,-9.13344,-4.29779
54.85000,-9.14171,-4.28654
54.90000,-9.14998,-4.30311
54.95000,-9.15851,-4.28338
55.00000,-9.16664,-4.30891
55.05000,-9.17491,-4.28841
55.10000,-9.18331,-4.30388
55.15000,-9.19171,-4.29472
55.20000,-9.19998,-4.30626
55.25000,-9.20824,-4.29719
55.30000,-9.21678,-4.30676
55.35000,-9.22518,-4.30085
55.40000,-9.23331,-4.30821
55.45000,-9.24171,-4.30497
55.50000,-9.25038,-4.30803
55.55000,-9.25838,-4.30925
55.60000,-9.26664,-4.31104
55.65000,-9.27518,-4.31206
55.70000,-9.28331,-4.30631
55.75000,-9.29158,-4.32081
55.80000,-9.30011,-4.30798
55.85000,-9.30838,-4.31759
55.90000,-9.31651,-4.31166
55.95000,-9.32491,-4.31746
56.00000,-9.33331,-4.31555
56.05000,-9.34171,-4.31973
56.10000,-9.34998,-4.31243
56.15000,-9.35824,-4.32483
56.20000,-9.36678,-4.31629
56.25000,-9.37504,-4.32407
56.30000,-9.38318,-4.31810
56.35000,-9.39171,-4.32786
56.40000,-9.40024,-4.31985
56.45000,-9.40824,-4.32925
56.50000,-9.41651,-4.31982
56.55000,-9.42504,-4.32792
56.60000,-9.43318,-4.32700
56.65000,-9.44131,-4.32709
56.70000,-9.44998,-4.32560
56.75000,-9.45838,-4.33274
56.80000,-9.46651,-4.32877
56.85000,-9.47491,-4.33420
56.90000,-9.48344,-4.32850
56.95000,-9.49171,-4.33868
57.00000,-9.49998,-4.33235
57.05000,-9.50824,-4.33912
57.10000,-9.51678,-4.33422
57.15000,-9.52518,-4.34334
57.20000,-9.53318,-4.33755
57.25000,-9.54171,-4.34235
57.30000,-9.55011,-4.34234
57.35000,-9.55811,-4.34690
57.40000,-9.56651,-4.34245
57.45000,-9.57504,-4.34718
57.50000,-9.58318,-4.34703
57.55000,-9.59158,-4.34900
57.60000,-9.60024,-4.35162
57.65000,-9.60851,-4.34895
57.70000,-9.61678,-4.35766
57.75000,-9.62518,-4.35449
57.80000,-9.63358,-4.35740
57.85000,-9.64171,-4.35519
57.90000,-9.65011,-4.36352
57.95000,-9.65851,-4.35817
58.00000,-9.66664,-4.36408
58.05000,-9.67491,-4.35945
58.10000,-9.68318,-4.36909
58.15000,-9.69171,-4.36328
58.20000,-9.69998,-4.37168
58.25000,-9.70824,-4.36527
58.30000,-9.71664,-4.37512
58.35000,-9.72504,-4.36917
58.40000,-9.73331,-4.37755
58.45000,-9.74158,-4.36986
58.50000,-9.75011,-4.38136
58.55000,-9.75838,-4.37405
58.60000,-9.76651,-4.38215
58.65000,-9.77504,-4.37808
58.70000,-9.78371,-4.38701
58.75000,-9.79184,-4.38168
58.80000,-9.79998,-4.38828
58.85000,-9.80851,-4.38222
58.90000,-9.81664,-4.39142
58.95000,-9.82491,-4.38541
59.00000,-9.83331,-4.39030
59.05000,-9.84158,-4.38706
59.10000,-9.84984,-4.39503
59.15000,-9.85824,-4.39019
59.20000,-9.86651,-4.39454
59.25000,-9.87504,-4.39616
59.30000,-9.88331,-4.39851
59.35000,-9.89158,-4.39905
59.40000,-9.90011,-4.39875
59.45000,-9.90851,-4.40766
59.50000,-9.91664,-4.40189
59.55000,-9.92504,-4.41141
59.60000,-9.93358,-4.40522
59.65000,-9.94158,-4.41698
59.70000,-9.94984,-4.40665
59.75000,-9.95851,-4.42030
59.80000,-9.96664,-4.41228
59.85000,-9.97478,-4.42442
59.90000,-9.98331,-4.41490
59.95000,-9.99171,-4.42983
60.00000,-9.99998,-4.42033
60.05000,-10.00838,-4.43453
60.10000,-10.01678,-4.42769
60.15000,-10.02504,-4.43765
60.20000,-10.03331,-4.43315
60.25000,-10.04171,-4.44448
60.30000,-10.05024,-4.43855
60.35000,-10.05851,-4.44913
60.40000,-10.06664,-4.44722
60.45000,-10.07518,-4.45313
60.50000,-10.08358,-4.45188
60.55000,-10.09158,-4.45947
60.60000,-10.09984,-4.45876
60.65000,-10.10837,-4.46436
60.70000,-10.11651,-4.46618
60.75000,-10.12491,-4.46884
60.80000,-10.13344,-4.47315
60.85000,-10.14184,-4.47802
60.90000,-10.14998,-4.47966
60.95000,-10.15851,-4.48167
61.00000,-10.16691,-4.48803
61.05000,-10.17504,-4.48934
61.10000,-10.18344,-4.49312
61.15000,-10.19184,-4.49423
61.20000,-10.20024,-4.50167
61.25000,-10.20851,-4.50189
61.30000,-10.21678,-4.50776
61.35000,-10.22517,-4.50556
61.40000,-10.23344,-4.51862
61.45000,-10.24158,-4.51628
61.50000,-10.24998,-4.51845
61.55000,-10.25837,-4.52645
61.60000,-10.26664,-4.53072
61.65000,-10.27491,-4.52923
61.70000,-10.28344,-4.53793
61.75000,-10.29184,-4.53934
61.80000,-10.29998,-4.54267
61.85000,-10.30837,-4.54509
61.90000,-10.31691,-4.55017
61.95000,-10.32491,-4.55198
62.00000,-10.33331,-4.55805
62.05000,-10.34171,-4.55560
62.10000,-10.34984,-4.56914
62.15000,-10.35811,-4.55838
62.20000,-10.36664,-4.57752
62.25000,-10.37478,-4.56932
62.30000,-10.38304,-4.58067
62.35000,-10.39157,-4.57795
62.40000,-10.39984,-4.58933
62.45000,-10.40837,-4.58504
62.50000,-10.41664,-4.59648
62.55000,-10.42478,-4.59439
62.60000,-10.43344,-4.60451
62.65000,-10.44184,-4.60011
62.70000,-10.44997,-4.62314
62.75000,-10.45851,-4.59356
62.80000,-10.46691,-4.63448
62.85000,-10.47491,-4.61163
62.90000,-10.48331,-4.63034
62.95000,-10.49184,-4.62241
63.00000,-10.49984,-4.63943
63.05000,-10.50811,-4.63217
63.10000,-10.51664,-4.64353
63.15000,-10.52504,-4.64071
63.20000,-10.53331,-4.65724
63.25000,-10.54171,-4.64397
63.30000,-10.55011,-4.66780
63.35000,-10.55837,-4.65292
63.40000,-10.56677,-4.67021
63.45000,-10.57504,-4.66952
63.50000,-10.58344,-4.67537
63.55000,-10.59184,-4.67588
63.60000,-10.59997,-4.68560
63.65000,-10.60837,-4.68540
63.70000,-10.61677,-4.69252
63.75000,-10.62477,-4.69309
63.80000,-10.63317,-4.70277
63.85000,-10.64171,-4.69941
63.90000,-10.64997,-4.71368
63.95000,-10.65824,-4.70891
64.00000,-10.66677,-4.72185
64.05000,-10.67504,-4.71744
64.10001,-10.68331,-4.73486
64.15000,-10.69171,-4.72319
64.20000,-10.70024,-4.74396
64.25000,-10.70837,-4.73479
64.30000,-10.71677,-4.74793
64.35001,-10.72517,-4.74533
64.40000,-10.73344,-4.75420
64.45000,-10.74171,-4.75601
64.50000,-10.74997,-4.76260
64.55000,-10.75851,-4.76202
64.60001,-10.76677,-4.77203
64.65000,-10.77491,-4.76873
64.70000,-10.78331,-4.77921
64.75000,-10.79171,-4.77649
64.80000,-10.79997,-4.78680
64.85001,-10.80824,-4.78461
64.90000,-10.81691,-4.79390
64.95000,-10.82517,-4.79270
65.00000,-10.83331,-4.79931
65.05000,-10.84171,-4.79993
65.10001,-10.85024,-4.80501
65.15000,-10.85824,-4.81027
65.20000,-10.86664,-4.80759
65.25000,-10.87517,-4.81763
65.30000,-10.88331,-4.81693
65.35001,-10.89144,-4.82016
65.40000,-10.89997,-4.82501
65.45000,-10.90824,-4.82883
65.50000,-10.91651,-4.83024
65.55000,-10.92491,-4.83624
65.60001,-10.93331,-4.83824
65.65000,-10.94171,-4.84514
65.70001,-10.94997,-4.84433
65.75000,-10.95824,-4.85251
65.80000,-10.96691,-4.85085
65.85001,-10.97517,-4.85878
65.90000,-10.98317,-4.85847
65.95001,-10.99171,-4.86418
66.00000,-11.00011,-4.86495
66.05000,-11.00811,-4.86958
66.10001,-11.01651,-4.87330
66.15000,-11.02517,-4.87444
66.20001,-11.03317,-4.87931
66.25000,-11.04144,-4.88336
66.30000,-11.04997,-4.88252
66.35001,-11.05837,-4.88997
66.40000,-11.06651,-4.89335
66.45001,-11.07504,-4.89493
66.50000,-11.08344,-4.89774
66.55000,-11.09171,-4.90463
66.60001,-11.09997,-4.90749
66.65000,-11.10824,-4.90679
66.70001,-11.11691,-4.91544
66.75000,-11.12517,-4.91596
66.80000,-11.13317,-4.91869
66.85001,-11.14171,-4.91940
66.90000,-11.15011,-4.92830
66.95001,-11.15811,-4.92393
67.00000,-11.16651,-4.93321
67.05000,-11.17491,-4.93032
67.10001,-11.18317,-4.94022
67.15000,-11.19144,-4.93403
67.20001,-11.19997,-4.94946
67.25000,-11.20851,-4.94281
67.30000,-11.21664,-4.95387
67.35001,-11.22504,-4.94977
67.40000,-11.23357,-4.95826
67.45001,-11.24184,-4.95825
67.50000,-11.25011,-4.96321
67.55000,-11.25851,-4.96413
67.60001,-11.26677,-4.96835
67.65000,-11.27504,-4.96969
67.70001,-11.28331,-4.97275
67.75000,-11.29171,-4.97436
67.80000,-11.29997,-4.97859
67.85001,-11.30824,-4.98098
67.90000,-11.31664,-4.98358
67.95001,-11.32517,-4.98575
68.00000,-11.33331,-4.99013
68.05000,-11.34157,-4.98931
68.10001,-11.35011,-4.99493
68.15000,-11.35864,-4.99700
68.20001,-11.36677,-4.99928
68.25000,-11.37517,-5.00247
68.30000,-11.38371,-5.00668
68.35001,-11.39171,-5.00628
68.40000,-11.39997,-5.01199
68.45001,-11.40851,-5.01276
68.50000,-11.41664,-5.01502
68.55000,-11.42491,-5.01855
68.60001,-11.43331,-5.02113
68.65000,-11.44157,-5.02279
68.70001,-11.44984,-5.02607
68.75000,-11.45824,-5.02678
68.80000,-11.46664,-5.03163
68.85001,-11.47517,-5.03191
68.90000,-11.48344,-5.03599
68.95001,-11.49157,-5.03702
69.00000,-11.50011,-5.04063
69.05000,-11.50850,-5.04308
69.10001,-11.51664,-5.04420
69.15000,-11.52504,-5.04887
69.20001,-11.53357,-5.04924
69.25000,-11.54157,-5.05446
69.30000,-11.54997,-5.05316
69.35001,-11.55837,-5.06153
69.40000,-11.56650,-5.05983
69.45001,-11.57477,-5.06351
69.50000,-11.58330,-5.06457
69.55000,-11.59171,-5.06958
69.60001,-11.59997,-5.07085
69.65000,-11.60850,-5.07465
69.70001,-11.61677,-5.07721
69.75000,-11.62504,-5.08091
69.80000,-11.63344,-5.08185
69.85001,-11.64171,-5.08640
69.90000,-11.65011,-5.08791
69.95001,-11.65850,-5.09211
70.00000,-11.66664,-5.09450
70.05000,-11.67504,-5.09673
70.10001,-11.68344,-5.09766
70.15000,-11.69157,-5.10390
70.20001,-11.69984,-5.10136
70.25000,-11.70837,-5.10941
70.30000,-11.71650,-5.10984
70.35001,-11.72477,-5.11533
70.40000,-11.73344,-5.11570
70.45001,-11.74157,-5.12222
70.50000,-11.74984,-5.12183
70.55000,-11.75837,-5.12804
70.60001,-11.76690,-5.13111
70.65000,-11.77517,-5.13380
70.70001,-11.78357,-5.13644
70.75000,-11.79197,-5.14193
70.80000,-11.80024,-5.14194
70.85001,-11.80837,-5.14632
70.90000,-11.81677,-5.14820
70.95001,-11.82517,-5.15194
71.00000,-11.83344,-5.15245
71.05000,-11.84157,-5.15613
71.10001,-11.84997,-5.15738
71.15000,-11.85850,-5.16186
71.20001,-11.86677,-5.16612
71.25000,-11.87490,-5.16751
71.30000,-11.88344,-5.17027
71.35001,-11.89184,-5.17325
71.40000,-11.89997,-5.17851
71.45001,-11.90837,-5.17579
71.50000,-11.91690,-5.18546
71.55000,-11.92490,-5.18335
71.60001,-11.93317,-5.18981
71.65000,-11.94170,-5.19040
71.70001,-11.94970,-5.19555
71.75000,-11.95810,-5.19422
71.80000,-11.96650,-5.20260
71.85001,-11.97490,-5.20195
71.90000,-11.98330,-5.20853
71.95001,-11.99170,-5.20608
72.00000,-11.99997,-5.21569
72.05000,-12.00850,-5.21169
72.10001,-12.01677,-5.21954
72.15000,-12.02490,-5.21782
72.20001,-12.03357,-5.22519
72.25000,-12.04184,-5.22330
72.30000,-12.04984,-5.23028
72.35001,-12.05837,-5.22801
72.40000,-12.06677,-5.23490
72.45001,-12.07490,-5.23360
72.50000,-12.08317,-5.23757
72.55000,-12.09184,-5.23827
72.60001,-12.09984,-5.24219
72.65000,-12.10810,-5.24380
72.70001,-12.11664,-5.24247
72.75000,-12.12490,-5.24925
72.80000,-12.13317,-5.25003
72.85001,-12.14170,-5.25387
72.90000,-12.15010,-5.25497
72.95001,-12.15850,-5.25852
73.00000,-12.16677,-5.26093
73.05000,-12.17504,-5.25965
73.10001,-12.18357,-5.26348
73.15000,-12.19184,-5.26615
73.20001,-12.19997,-5.26647
73.25000,-12.20837,-5.26751
73.30000,-12.21677,-5.27157
73.35001,-12.22490,-5.27386
73.40000,-12.23317,-5.27195
73.45001,-12.24170,-5.27646
73.50000,-12.24984,-5.27942
73.55000,-12.25810,-5.27945
73.60001,-12.26677,-5.28309
73.65000,-12.27517,-5.28786
73.70001,-12.28344,-5.28520
73.75000,-12.29184,-5.29599
73.80000,-12.30024,-5.28947
73.85001,-12.30837,-5.29605
73.90000,-12.31677,-5.29903
73.95001,-12.32517,-5.30020
74.00000,-12.33344,-5.29957
74.05000,-12.34157,-5.30547
74.10001,-12.34997,-5.30387
74.15000,-12.35837,-5.30819
74.20001,-12.36664,-5.31052
74.25000,-12.37477,-5.31221
74.30000,-12.38317,-5.31523
74.35001,-12.39170,-5.31672
74.40000,-12.39984,-5.31981
74.45001,-12.40810,-5.32078
74.50000,-12.41677,-5.32686
74.55000,-12.42517,-5.32637
74.60001,-12.43330,-5.33007
74.65000,-12.44170,-5.33168
74.70001,-12.45037,-5.33792
74.75000,-12.45837,-5.33512
74.80000,-12.46677,-5.34304
74.85001,-12.47517,-5.33953
74.90000,-12.48330,-5.35006
74.95001,-12.49157,-5.34064
75.00000,-12.49997,-5.35271
75.05000,-12.50824,-5.34827
75.10001,-12.51650,-5.35577
75.15000,-12.52490,-5.35526
75.20001,-12.53317,-5.35748
75.25000,-12.54170,-5.36142
75.30000,-12.54997,-5.36626
75.35001,-12.55810,-5.36011
75.40000,-12.56677,-5.37423
75.45001,-12.57517,-5.37061
75.50000,-12.58317,-5.37782
75.55000,-12.59170,-5.37646
75.60001,-12.60024,-5.38542
75.65000,-12.60810,-5.38243
75.70001,-12.61650,-5.38951
75.75000,-12.62517,-5.38978
75.80000,-12.63317,-5.39892
75.85001,-12.64144,-5.39267
75.90000,-12.64997,-5.40330
75.95001,-12.65837,-5.40400
76.00000,-12.66664,-5.40760
76.05000,-12.67517,-5.41157
76.10001,-12.68344,-5.41327
76.15000,-12.69170,-5.41822
76.20001,-12.70010,-5.41845
76.25000,-12.70837,-5.42261
76.30000,-12.71677,-5.42534
76.35001,-12.72504,-5.43035
76.40000,-12.73330,-5.43142
76.45001,-12.74184,-5.43387
76.50000,-12.75024,-5.43832
76.55000,-12.75824,-5.44223
76.60001,-12.76664,-5.44134
76.65000,-12.77504,-5.44826
76.70001,-12.78317,-5.44701
76.75000,-12.79157,-5.45550
76.80000,-12.80010,-5.45302
76.85001,-12.80837,-5.46346
76.90000,-12.81663,-5.46112
76.95001,-12.82504,-5.46551
77.00000,-12.83357,-5.46937
77.05000,-12.84184,-5.47133
77.10001,-12.85010,-5.47440
77.15000,-12.85850,-5.47765
77.20001,-12.86677,-5.47943
77.25000,-12.87504,-5.48224
77.30000,-12.88344,-5.48361
77.35001,-12.89184,-5.48731
77.40000,-12.89997,-5.48766
77.45001,-12.90824,-5.49093
77.50000,-12.91650,-5.49175
77.55000,-12.92504,-5.49540
77.60001,-12.93330,-5.49869
77.65000,-12.94157,-5.50043
77.70001,-12.95010,-5.50343
77.75000,-12.95850,-5.50752
77.80000,-12.96663,-5.51063
77.85001,-12.97517,-5.51057
77.90000,-12.98370,-5.51777
77.95001,-12.99170,-5.51610
78.00000,-12.99997,-5.52014
78.05000,-13.00837,-5.51980
78.10001,-13.01637,-5.52456
78.15000,-13.02477,-5.52384
78.20001,-13.03330,-5.53014
78.25000,-13.04143,-5.53012
78.30000,-13.04970,-5.53525
78.35001,-13.05810,-5.53434
78.40000,-13.06637,-5.54264
78.45001,-13.07490,-5.54003
78.50000,-13.08343,-5.54938
78.55000,-13.09157,-5.54715
78.60001,-13.10023,-5.55344
78.65000,-13.10850,-5.55576
78.70001,-13.11650,-5.55783
78.75000,-13.12503,-5.56078
78.80000,-13.13343,-5.56324
78.85001,-13.14143,-5.56688
78.90000,-13.14983,-5.56828
78.95001,-13.15850,-5.57111
79.00000,-13.16637,-5.57569
79.05000,-13.17463,-5.57592
79.10001,-13.18330,-5.57843
79.15000,-13.19170,-5.58295
79.20001,-13.19983,-5.58487
79.25000,-13.20837,-5.58729
79.30000,-13.21677,-5.58983
79.35001,-13.22503,-5.59342
79.40000,-13.23343,-5.59530
79.45001,-13.24183,-5.59914
79.50000,-13.25023,-5.59861
79.55000,-13.25850,-5.60343
79.60001,-13.26663,-5.60393
79.65000,-13.27517,-5.60620
79.70001,-13.28343,-5.60894
79.75000,-13.29157,-5.61304
79.80000,-13.29997,-5.61176
79.85001,-13.30850,-5.61740
79.90000,-13.31663,-5.61993
79.95001,-13.32490,-5.62024
80.00000,-13.33343,-5.62358
80.05000,-13.34183,-5.62701
80.10001,-13.34997,-5.62742
80.15000,-13.35837,-5.63094
80.20001,-13.36690,-5.63140
80.25000,-13.37503,-5.63520
80.30000,-13.38343,-5.63468
80.35001,-13.39183,-5.63870
80.40000,-13.40010,-5.63884
80.45001,-13.40823,-5.64091
80.50001,-13.41663,-5.64184
80.55000,-13.42503,-5.64352
80.60001,-13.43330,-5.64621
80.65000,-13.44157,-5.64846
80.70001,-13.44997,-5.64849
80.75001,-13.45837,-5.65230
80.80000,-13.46677,-5.65435
80.85001,-13.47503,-5.65550
80.90000,-13.48343,-5.65947
80.95001,-13.49183,-5.66058
81.00001,-13.49997,-5.66221
81.05000,-13.50837,-5.66218
81.10001,-13.51690,-5.66597
81.15000,-13.52503,-5.66622
81.20001,-13.53330,-5.66834
81.25001,-13.54183,-5.66879
81.30000,-13.54983,-5.67128
81.35001,-13.55810,-5.67186
81.40000,-13.56650,-5.67273
81.45001,-13.57490,-5.67595
81.50001,-13.58317,-5.67462
81.55000,-13.59143,-5.67993
81.60001,-13.59983,-5.68094
81.65000,-13.60837,-5.68364
81.70001,-13.61677,-5.68748
81.75001,-13.62503,-5.69009
81.80000,-13.63357,-5.68939
81.85001,-13.64183,-5.69540
81.90000,-13.64983,-5.69350
81.95001,-13.65837,-5.69653
82.00001,-13.66690,-5.70129
82.05000,-13.67490,-5.69376
82.10001,-13.68317,-5.71121
82.15000,-13.69170,-5.69554
82.20001,-13.69970,-5.71454
82.25001,-13.70797,-5.70384
82.30000,-13.71650,-5.71575
82.35001,-13.72490,-5.71190
82.40000,-13.73317,-5.72010
82.45001,-13.74170,-5.71667
82.50001,-13.75010,-5.72730
82.55000,-13.75850,-5.72194
82.60001,-13.76690,-5.73240
82.65000,-13.77503,-5.72492
82.70001,-13.78357,-5.73662
82.75001,-13.79183,-5.73098
82.80000,-13.79997,-5.73601
82.85001,-13.80850,-5.73782
82.90000,-13.81677,-5.73819
82.95001,-13.82490,-5.74060
83.00001,-13.83330,-5.74317
83.05000,-13.84170,-5.74469
83.10001,-13.84983,-5.74818
83.15000,-13.85823,-5.74952
83.20001,-13.86690,-5.75165
83.25001,-13.87503,-5.75685
83.30000,-13.88330,-5.75479
83.35001,-13.89183,-5.76023
83.40000,-13.90023,-5.76070
83.45001,-13.90850,-5.76586
83.50001,-13.91677,-5.76171
83.55000,-13.92530,-5.77224
83.60001,-13.93343,-5.76716
83.65000,-13.94170,-5.77338
83.70001,-13.94997,-5.77388
83.75001,-13.95850,-5.77774
83.80000,-13.96663,-5.77952
83.85001,-13.97490,-5.78292
83.90000,-13.98330,-5.78338
83.95001,-13.99170,-5.79016
84.00001,-13.99997,-5.78670
84.05000,-14.00823,-5.79652
84.10001,-14.01690,-5.79208
84.15000,-14.02517,-5.80084
84.20001,-14.03330,-5.80002
84.25001,-14.04183,-5.80138
84.30000,-14.05023,-5.80632
84.35001,-14.05837,-5.80369
84.40000,-14.06663,-5.80904
84.45001,-14.07517,-5.80540
84.50001,-14.08330,-5.81330
84.55000,-14.09157,-5.80504
84.60001,-14.09997,-5.82034
84.65000,-14.10823,-5.80810
84.70001,-14.11650,-5.82179
84.75001,-14.12490,-5.81450
84.80000,-14.13317,-5.82603
84.85001,-14.14170,-5.81853
84.90000,-14.14997,-5.83291
84.95001,-14.15823,-5.82161
85.00001,-14.16677,-5.83539
85.05000,-14.17517,-5.82510
85.10001,-14.18317,-5.83902
85.15000,-14.19170,-5.83321
85.20001,-14.20023,-5.84216
85.25001,-14.20823,-5.84226
85.30000,-14.21650,-5.84584
85.35001,-14.22503,-5.84532
85.40000,-14.23317,-5.85462
85.45001,-14.24143,-5.84874
85.50001,-14.24997,-5.86339
85.55000,-14.25837,-5.85492
85.60001,-14.26663,-5.87061
85.65000,-14.27517,-5.86342
85.70001,-14.28343,-5.87234
85.75001,-14.29170,-5.87579
85.80000,-14.30023,-5.87516
85.85001,-14.30837,-5.88132
85.90000,-14.31690,-5.88180
85.95001,-14.32517,-5.88655
86.00001,-14.33330,-5.88755
86.05000,-14.34170,-5.89372
86.10001,-14.35010,-5.88835
86.15000,-14.35823,-5.90121
86.20001,-14.36663,-5.89278
86.25001,-14.37503,-5.90272
86.30000,-14.38317,-5.90222
86.35001,-14.39143,-5.90451
86.40000,-14.40010,-5.90687
86.45001,-14.40836,-5.91544
86.50001,-14.41650,-5.90958
86.55000,-14.42517,-5.92305
86.60001,-14.43356,-5.91715
86.65000,-14.44183,-5.92830
86.70001,-14.45010,-5.92376
86.75001,-14.45863,-5.92963
86.80000,-14.46676,-5.93265
86.85001,-14.47503,-5.93253
86.90000,-14.48330,-5.93552
86.95001,-14.49170,-5.93990
87.00001,-14.49996,-5.93684
87.05000,-14.50823,-5.94825
87.10001,-14.51663,-5.94084
87.15000,-14.52503,-5.95190
87.20001,-14.53330,-5.95183
87.25001,-14.54156,-5.95480
87.30000,-14.55010,-5.95820
87.35001,-14.55850,-5.96089
87.40000,-14.56663,-5.96298
87.45001,-14.57503,-5.96570
87.50001,-14.58356,-5.96678
87.55000,-14.59170,-5.97672
87.60001,-14.59996,-5.97007
87.65000,-14.60850,-5.97959
87.70001,-14.61650,-5.98092
87.75001,-14.62476,-5.98137
87.80000,-14.63330,-5.98568
87.85001,-14.64156,-5.98730
87.90000,-14.64983,-5.99022
87.95001,-14.65823,-5.99326
88.00001,-14.66663,-5.99453
88.05000,-14.67503,-5.99986
88.10001,-14.68343,-5.99880
88.15000,-14.69156,-6.00816
88.20001,-14.70010,-6.00370
88.25001,-14.70836,-6.01042
88.30000,-14.71650,-6.01343
88.35001,-14.72503,-6.01241
88.40000,-14.73356,-6.01849
88.45001,-14.74156,-6.02137
88.50001,-14.74983,-6.02091
88.55000,-14.75850,-6.02727
88.60001,-14.76650,-6.02579
88.65000,-14.77476,-6.03397
88.70001,-14.78330,-6.02825
88.75001,-14.79170,-6.04452
88.80000,-14.79983,-6.03088
88.85001,-14.80836,-6.04882
88.90000,-14.81676,-6.04151
88.95001,-14.82503,-6.05083
89.00001,-14.83343,-6.04581
89.05000,-14.84170,-6.05957
89.10001,-14.85010,-6.05109
89.15000,-14.85850,-6.06363
89.20001,-14.86663,-6.05862
89.25001,-14.87516,-6.06911
89.30000,-14.88343,-6.06452
89.35001,-14.89143,-6.07542
89.40000,-14.89983,-6.06923
89.45001,-14.90836,-6.08073
89.50001,-14.91650,-6.07921
89.55000,-14.92476,-6.08664
89.60001,-14.93356,-6.08510
89.65000,-14.94183,-6.10638
89.70001,-14.95010,-6.09238
89.75001,-14.95850,-6.10897
89.80000,-14.96690,-6.10618
89.85001,-14.97503,-6.11482
89.90000,-14.98343,-6.11563
89.95001,-14.99196,-6.12353
90.00001,-15.00010,-6.12616
90.05000,-15.00836,-6.13274
90.10001,-15.01676,-6.13322
90.15000,-15.02503,-6.14305
90.20001,-15.03330,-6.14335
90.25001,-15.04156,-6.15274
90.30000,-15.04983,-6.15379
90.34600,-15.05770,-6.15587
